Acc_x,Acc_y,Acc_z,Gyro_x,Gyro_y,Gyro_z,Mag_x,Mag_y,Mag_z,roll_mean_AccX,roll_mean_AccY,roll_mean_NAccZ,roll_std_AccX,roll_std_AccY,roll_std_NAccZ,roll_min_AccX,roll_min_NAccY,roll_min_NAccZ,roll_max_AccX,roll_max_NAccY,roll_max_NAccZ,roll_EME_AccX,roll_EME_NAccY,roll_EME_NAccZ,roll_IQR_AccX,roll_IQR_NAccY,roll_IQR_NAccZ,Acc-SMA,roll_skew_AccX,roll_skew_NAccY,roll_skew_NAccZ,roll_mean_NGyroX,roll_mean_NGyroY,roll_mean_NGyroZ,roll_std_NGyroX,roll_std_NGyroY,roll_std_NGyroZ,roll_mad_NGyroX,roll_mad_NGyroY,roll_mad_NGyroZ,roll_min_NGyroX,roll_min_NGyroY,roll_min_NGyroZ,roll_max_NGyroX,roll_max_NGyroY,roll_max_NGyroZ,roll_EME_NGyroX,roll_EME_NGyroY,roll_EME_NGyroZ,roll_IQR_NGyroX,roll_IQR_NGyroY,roll_IQR_NGyroZ,N-Gyro-SMA,roll_skew_NGyroX,roll_skew_NGyroY,roll_skew_NGyroZ,roll_mean_TAccX,roll_mean_TAccY,roll_mean_TAccZ,roll_std_TAccX,roll_std_TAccY,roll_std_TAccZ,roll_mad_TAccX,roll_mad_TAccY,roll_mad_TAccZ,roll_min_TAccX,roll_min_TAccY,roll_min_TAccZ,roll_max_TAccX,roll_max_TAccY,roll_max_TAccZ,roll_EME_TAccX,roll_EME_TAccY,roll_EME_TAccZ,roll_IQR_TAccX,roll_IQR_TAccY,roll_IQR_TAccZ,T-Acc-SMA,roll_skew_TAccX,roll_skew_TAccY,roll_skew_TAccZ,label
-0.0963849198505862,1.760176747309979,1.567911796299505,-0.27815485763679576,-0.4381779206968634,0.0633280374032142,0.16954409036423682,-0.8809308999161104,0.238133719073123,0.1280536520784529,0.4998831255593329,1.15605532906411,-0.5896115009509159,1.5285560394328936,0.10986443577096873,0.3754435185171042,0.4273730851982317,1.1638134459449188,-0.34101888139420505,1.4594233103196799,1.3219069429242554,-0.699032712671726,-0.4721503107482551,-1.3388444622568987,-0.7829836160687337,-0.6830605809071085,-0.6030869096950949,-2.220446049250313e-16,-2.2326047000874776,2.256583722543754,2.389362443368206,-0.16637664846075756,-0.1839719773880027,0.011036740563699476,-0.5430044857633479,-0.5631385987247434,-0.74133672651552,-0.5904512545956714,-0.722128431591969,-0.6625004942057532,0.36763921417409273,0.257567350959223,0.5660335409066912,-0.6030375354882302,-0.6033274464698519,-0.5193969743963428,-0.31544672267621754,-0.30300836499059225,-0.44555958854761285,-0.5799874660947948,-0.7683862281004694,-0.7036632278249576,0.0,-2.2955548922896867,-2.385080365225447,2.3065904767112397,0.42320000762036697,-0.08028541250460627,0.14018092017455372,0.17053178813605907,1.5653611508866616,-0.2535067207625226,-0.7378153497289552,-0.6510206498316318,-0.6331156939622445,0.3018390045184374,-0.7356836431000284,0.22796328654302606,0.34883983384388356,-0.029485309118240054,0.12016978142929208,-0.8940270812516652,-0.7244165326016291,-1.0435704299842312,-0.47742255481379503,-0.5097569788149307,-0.4862847472767543,2.842170943040401e-14,-2.4265818734772493,-2.3638463674389643,2.285373726501944,10
-0.09437587783606521,1.5871735055728375,1.6939561463953576,-0.000849927337685605,-0.3391865104620611,0.062424390212218774,0.18683905095801195,-0.8546028651534812,0.2288385174657727,0.06709014530085643,0.8088060327842808,1.314409946910369,-0.5416426841623381,1.9039090319181011,0.40625765116075274,0.3754435185171042,0.4273730851982317,1.1638134459449188,-0.34101888139420505,1.4594233103196799,1.4512003246308223,-0.690605155531776,-0.07679219113650158,-1.2595828718017856,-0.3077750947627581,3.2932110948978166,1.0286643739997237,-2.220446049250313e-16,-0.5856481842828266,0.6779996610314978,0.8158539688862406,-0.15396528795618872,-0.2888194948315657,0.03081969664300012,-0.5379589226666812,-0.5381755718396484,-0.7307658432640527,-0.5904512545956714,-0.722128431591969,-0.6625004942057532,0.36763921417409273,0.257567350959223,0.5660335409066912,-0.5766643954025338,-0.6033274464698519,-0.5193969743963428,-0.3153894422959574,-0.2969072923384976,-0.4451436136402067,-0.5799874660947948,-0.36992247110945686,-0.6135862039089923,0.0,-2.2167227076806615,-0.8096645331371132,0.6291995716660295,0.3646969932679328,-0.2802329521364314,0.1634490564713749,0.3179371028151515,2.0256580880810096,-0.19228887569448813,-0.7378153497289552,-0.6510206498316318,-0.6331156939622445,0.3018390045184374,-0.7356836431000284,0.22796328654302606,0.34883983384388356,-0.029485309118240054,0.12016978142929208,-0.8818005447676074,-0.5547901490029811,-1.0408534402350789,0.6511420496331823,2.832624454296909,0.023070566061377962,2.842170943040401e-14,-0.69125253871308,-0.6698200875346633,0.6013772959638716,10
-0.003915467620759252,1.6568797806123348,1.6449396958663058,0.03740418241257408,-0.11208858055921188,0.10941416258712948,0.16262603694688443,-0.86447583705181,0.1978543055465255,0.028475957548638756,1.1326451882998954,1.4622384557785464,-0.563177016155727,1.8942158843609724,0.41401702255515904,0.3754435185171042,0.4273730851982317,1.1638134459449188,-0.34101888139420505,1.4594233103196799,1.4512003246308223,-0.6872240740895378,0.3576671633220402,-1.1905083781537689,-0.3077750947627581,3.485204159187685,1.2342563510366007,-2.220446049250313e-16,0.28613038113467576,-0.5196825395890006,-0.41049004738729067,-0.12570700224373615,-0.31734756101320066,0.06421672947070357,-0.5255132308184783,-0.555579741913818,-0.7114533950338017,-0.5357117431499594,-0.5380769297480734,-0.5544832636112146,0.36763921417409273,0.257567350959223,0.5660335409066912,-0.5429909574034342,-0.6033274464698519,-0.4757936024488688,-0.31509250911197845,-0.29645560849147334,-0.44395811645523725,-0.5499989295884472,-0.36992247110945686,-0.6123941206242367,0.0,-1.9881440091742149,-0.6768704795676534,0.08749589043300356,0.30125451407597426,-0.48220648301960234,0.1804280268129534,0.3347701037840081,2.0227071460880697,-0.22124815364675485,-0.37493002535704956,-0.36768548827281206,-0.07278592044034185,0.29476432225683563,-0.7356836431000284,0.22796328654302606,0.34883983384388356,-0.029485309118240054,0.12016978142929208,-0.8674222543028001,-0.3817088325271578,-1.0394067101888316,0.7192031244999976,2.86649151540011,0.023070566061377962,2.842170943040401e-14,0.6049198452310497,0.5981211156228458,-0.4162361566378201,10
-0.19086341409493413,1.6064903032181344,1.5982560720845815,0.2215020843615673,-0.18584688747147537,0.3633396746941612,0.19029790471708227,-0.8677667179841672,0.22573991036857644,-0.05632594134645656,1.4457016423209466,1.6000418219422976,-0.5539912181099088,1.3854093823979357,0.199642029139494,0.2932995301773282,0.4273730851982317,1.1638134459449188,-0.34101888139420505,1.4594233103196799,1.4512003246308223,-0.6709171151186841,0.763676255562779,-1.1304849259122558,-0.6049023207577653,-0.4910675166172407,-0.3974949326582178,-2.220446049250313e-16,0.950226753254277,-2.09162148916186,-1.9744438045719221,-0.021185389475444464,-0.37066314292411123,0.17118214187303119,-0.4584693635548728,-0.587167785833225,-0.5648946466207067,-0.5205594048281159,-0.38966530327052645,-0.5565605128097653,0.36763921417409273,0.257567350959223,0.5660335409066912,-0.38093753811031705,-0.6033274464698519,-0.23554757379771188,-0.3110301406116026,-0.2948780037590651,-0.43179705452951245,-0.5117093242760365,-0.4783408744020412,-0.6416747407685267,0.0,-0.4313867995744781,-0.3480055717446741,1.826969452673849,0.24345710731622283,-0.6848553218087248,0.20306720877925452,0.15361909556981782,1.5350457845121404,-0.2820266079852948,-0.47861228718634374,-0.5447704069593706,-0.4607045435390477,0.29476432225683563,-0.7356836431000284,0.22796328654302606,0.34883983384388356,-0.029485309118240054,0.12016978142929208,-0.855488868895451,-0.207468170239469,-1.036834619589412,-0.39574980946221555,-0.46460127364718384,-0.3486106312709192,2.842170943040401e-14,2.3157488343845007,2.29234346669477,-1.918289474259697,10
-0.2109661849082659,1.7534586089783493,1.574135854547497,0.14439614592636452,-0.34986205906797757,0.2711674243263306,0.155707983529532,-0.8776400189837533,0.22573991036857644,-0.14609446859457262,1.7902074276731568,1.732665456900912,-0.6437663946832225,-0.5256995642301067,-0.5519746254877146,0.275821248114357,1.8128042832616105,1.728222998670855,-0.4995632966717968,1.4594233103196799,1.4512003246308223,-0.6526441079529466,1.2553573107604699,-1.0748889739051766,-0.5971641370516299,-0.2782635183699758,-0.4141073087919796,-2.220446049250313e-16,0.3381363170657801,0.261566705679796,1.0136007577673476,0.05139476530458348,-0.47909832852419215,0.2514430177951897,-0.444004002112493,-0.6371458922672673,-0.5755151005266544,-0.39497248671790475,-0.5075003186375359,-0.5544832636112146,0.36763921417409273,0.257567350959223,0.629350428886711,-0.38093753811031705,-0.6723764482017812,-0.23554757379771188,-0.30907128289615726,-0.28835225503168105,-0.4249501771484642,-0.4346066206179185,-0.5589090282071602,-0.4294833692100412,0.0,-1.0972510751021483,0.3779299842251921,0.8021643558319138,0.17860334237531697,-0.8895302193826848,0.22570639074555574,-0.5165046415432872,-0.5869683741634709,-0.5006255295779274,-0.5304508260703662,-0.5447668652609974,-0.5900107512386162,0.28768963999523384,-0.7356836431000284,0.3129475932765598,0.06833274545627645,-1.0137804651144844,0.12016978142929208,-0.8404637697204108,-0.029726016785542656,-1.0342625289899925,-0.3821367777559544,-0.4646001447376212,-0.47251650963147473,2.842170943040401e-14,0.16110286749364378,0.2775473622348969,-1.6777685878273503,10
0.13679981118318912,1.8937087764069351,1.5647997671755092,-0.24886655149289155,0.06254149422948423,0.43201702406914294,0.1660848907059547,-0.8578937460858382,0.24123201632820002,-0.08848341052710441,1.8187815682313508,1.731997159679294,-0.5266897540562827,-0.3804875168363193,-0.5498258495450979,0.275821248114357,1.8128042832616105,1.7253499554941585,-0.35682153831682667,1.5922676400657252,1.4512003246308223,-0.6611758658086968,1.3406425810517175,-1.0754422170768356,-0.422951933593729,-0.2782635183699758,-0.4141073087919796,-2.220446049250313e-16,0.7762967408635362,1.1110724139301216,0.9759202798295933,0.0635275688113989,-0.31082453140186483,0.3582611594263844,-0.45824017521808674,-0.5810220017244636,-0.5392478823622268,-0.39497248671790475,-0.38966530327052645,-0.29274921795280867,0.3929311109684407,0.345112510756347,0.629350428886711,-0.38093753811031705,-0.530331375130771,-0.1705700128243477,-0.3099410873752002,-0.2984344192035862,-0.4082710142097491,-0.4346066206179185,-0.4783408744020412,-0.368686965438366,0.0,-0.9512573561801315,0.6206907484244764,-0.1236487829072074,0.17789766421905245,-0.8848028614405496,0.22633528218441615,-0.5149406142025286,-0.5945992306701295,-0.4956888927277961,-0.5822945490156386,-0.5801859740173327,-0.5900107512386162,0.28768963999523384,-0.7323610760810593,0.3129475932765598,0.06833274545627645,-1.0137804651144844,0.12322275309806911,-0.8401492433412994,-0.037868876802127825,-1.0341017653552003,-0.3821367777559544,-0.4758899177117297,-0.47251650963147473,2.842170943040401e-14,0.3565622592328209,-0.6684505895745426,-1.3729507812319912,10
-0.03607660741059087,1.6342039138012232,1.519671361225336,0.030231535610268877,0.0809810709575501,0.035314900455388175,0.13149496951840442,-0.8513116551198667,0.26292102664009687,-0.07407988316541558,1.8288454720326734,1.6945701199381393,-0.5263691821649873,-0.4094040672765817,-0.5734964305672577,0.275821248114357,1.8313420626105745,1.683687151701413,-0.35682153831682667,1.5922676400657252,1.4009203823459495,-0.6646877001637993,1.3668216452129351,-1.1084814569056127,-0.422951933593729,-0.35459554178348374,-0.5137900716755195,-2.220446049250313e-16,0.36988769012393335,1.2692898193130462,0.34274956449289906,0.07640319503570286,-0.16962131010559747,0.3504068827294283,-0.45926684908253745,-0.5691104584792829,-0.5264180376361057,-0.39497248671790475,-0.3435044345392187,-0.29274921795280867,0.3929311109684407,0.345112510756347,0.604212206075531,-0.38093753811031705,-0.515332520970593,-0.1705700128243477,-0.3097605954478203,-0.3038019329276261,-0.4085357481340318,-0.4657169237089848,-0.45114909583838825,-0.368686965438366,0.0,-1.1491072653004222,-0.4542788795049233,-0.23437439057818552,0.16660744879105624,-0.8841274860011064,0.23325333957851926,-0.4821383963766129,-0.5898244343424902,-0.4468630527977286,-0.6341330878996604,-0.5801859740173327,-0.41760391105107747,0.26292842894491536,-0.7323610760810593,0.3129475932765598,0.06833274545627645,-1.010455749167757,0.144594470707646,-0.8349748059995485,-0.0390128569959029,-1.0322459624392368,-0.4365861821380054,-0.4758899177117297,-0.41744768927383674,2.842170943040401e-14,-0.12019335658433955,-0.269630797758087,-0.07810848704690385,10
-0.10241616278352314,1.7962888907843493,1.5181161433937846,-0.02117242008218228,0.03924939396229835,0.1835134247188708,0.11765920858291141,-0.8118197675265516,0.2536258250327466,-0.09841565010671685,1.8586772325180594,1.6673352116592963,-0.5323880584199294,-0.4059043596748881,-0.6060245144950667,0.275821248114357,1.8313420626105745,1.6822513656591926,-0.35682153831682667,1.5922676400657252,1.3530333998317299,-0.6590830660267336,1.4505524132807466,-1.1315885609350116,-0.48488911711045957,-0.2366274385722148,-0.45771798592346774,-2.220446049250313e-16,1.0692079537878174,0.24869216045007037,0.08611370884662181,0.05213759207888484,-0.11876205667464663,0.3718752361747872,-0.4569518899030268,-0.5545108777285913,-0.5450850756156812,-0.3818677626499489,-0.6316479438135871,-0.45062053141377734,0.3929311109684407,0.345112510756347,0.604212206075531,-0.38093753811031705,-0.515332520970593,-0.1705700128243477,-0.3100516007884325,-0.30397685027609334,-0.40652174879692576,-0.4142652708588688,-0.45114909583838825,-0.4664380486931772,0.0,-0.7789916910648853,-1.063148394502873,-0.5409287536601377,0.15743419726827182,-0.8733221543049335,0.24457382571962413,-0.43950514353403386,-0.51469097245889,-0.4913436982650787,-0.37493002535704895,-0.5447704069593706,-0.41760391105107747,0.24877941815228746,-0.7323610760810593,0.34127847266529326,0.06833274545627645,-0.9705618174202086,0.144594470707646,-0.830516241893555,-0.05703674672992955,-1.0296736648649076,-0.34130040508016457,-0.4533115006730753,-0.36237749217503873,2.842170943040401e-14,0.10884898217574825,1.4167539041831314,0.20393506958608426,10
0.07046437269963089,1.7786524876987044,1.508780056021797,0.015886251798710567,-0.05482884731966135,0.17176598162514312,0.10728195550727684,-0.8447298932551525,0.24433062342539627,-0.033851515770305395,1.8955177305725126,1.6481205544200248,-0.5375728500502573,-0.48594082013428386,-0.621432087233311,0.275821248114357,1.857938023669239,1.6736322361291023,-0.35682153831682667,1.5922676400657252,1.3282914380500546,-0.6744613004976904,1.5517334057674703,-1.1471603515910451,-0.45004350503211465,-0.5650924776958396,-0.4784855826109122,-2.220446049250313e-16,-0.13201412197204393,-0.3135015270497093,0.7144299686524482,-0.03303962787088083,-0.07473160279038048,0.3163716908584213,-0.5015735219363273,-0.5706713717364048,-0.5599237892949007,-0.522743519542004,-0.6316479438135871,-0.4610068114402687,0.3929311109684407,0.345112510756347,0.604212206075531,-0.4488105602303148,-0.515332520970593,-0.1705700128243477,-0.3139748211772296,-0.3055066067995786,-0.41586795695743506,-0.5285358132446787,-0.61848295842782,-0.5725337344724198,0.0,-1.1565944404823325,-1.9341489822932585,0.4871495347139334,0.14049890940806836,-0.8685948638962904,0.24834736302776544,-0.4608542049304858,-0.5207581242063175,-0.5075099207255831,-0.37493002535704895,-0.5801859740173344,-0.503809486262676,0.23816721789459686,-0.7323610760810593,0.34127847266529326,0.04436013183907112,-0.9705618174202086,0.144594470707646,-0.8224984630243365,-0.06507112725942388,-1.028744764154454,-0.3276887345954003,-0.46460127364718434,-0.43121455017795624,2.842170943040401e-14,0.18665803718802393,0.7516403814318446,-0.38548563752660364,10
-0.202925899960808,1.7668948856416082,1.5188937523095605,0.0846241055622413,-0.21690301586081065,0.18983896986123236,0.11420000892462928,-0.8513116551198667,0.22573991036857644,-0.03186506785438292,1.8983929213454769,1.6362575088086297,-0.5427538731031083,-0.4873766588433659,-0.6452157550286781,0.28281184505660206,1.857938023669239,1.6736322361291023,-0.35682153831682667,1.5922676400657252,1.3187146953613555,-0.6752610632377406,1.5599746374395314,-1.1566615216162037,-0.45004350503211465,-0.6021002209408173,-0.5989359421818967,-2.220446049250313e-16,-0.07059104422033464,-0.458631096074342,2.153381735218433,-0.057800445972691204,-0.030048847548080647,0.29280886505703474,-0.5199838351705331,-0.6510848988326935,-0.5643273513011469,-0.522743519542004,-0.6316479438135871,-0.6354961865571186,0.3929311109684407,0.4769112666010959,0.604212206075531,-0.501425301716158,-0.515332520970593,-0.1705700128243477,-0.31508337492306476,-0.30977664490777485,-0.41929802294065105,-0.5285358132446787,-0.61848295842782,-0.6798215035364182,0.0,-1.7820204271338944,-1.5090712886245088,1.0799249905392998,0.13203126547796668,-0.8631921305147119,0.24834736302776544,-0.4693076978499853,-0.5490301363422397,-0.5075099207255831,-0.582289364954388,-0.5801895157157075,-0.503809486262676,0.23816721789459686,-0.7124246771572648,0.34127847266529326,0.04436013183907112,-0.9705618174202086,0.144594470707646,-0.818318816373099,-0.0743308773084772,-1.028744764154454,-0.4093614799469798,-0.48717969068583883,-0.43121455017795624,2.842170943040401e-14,1.605563192700088,1.9255683493013982,-0.38548563752659676,10
0.02422758814003042,1.859275307538727,1.5126696940615685,-0.046239323396503995,-0.415856321957354,0.22688860832979976,0.13149496951840442,-0.8085285574929371,0.2319368147208497,-0.059677372930155785,1.8910246009058016,1.6250627604188528,-0.5966898627232865,-0.5206993946822578,-0.6974748759197505,0.28281184505660206,1.857938023669239,1.6736322361291023,-0.42411229175081244,1.5580115059864093,1.2724230193609045,-0.6730215765930309,1.5373350903922003,-1.1655092116763932,-0.539088116921055,-0.6021002209408173,-0.5864745335613331,-2.220446049250313e-16,-0.5280198854862284,-1.0710851012792733,-0.7850851219075112,0.026138732057780747,-0.19082115767835528,0.2333781878264131,-0.6175156662111358,-0.5337103885794472,-0.6743129771720994,-0.522743519542004,-0.4276723125085586,-0.6354961865571186,0.5679097155882671,0.2796941568640242,0.604212206075531,-0.501425301716158,-0.515332520970593,-0.36464774387213705,-0.31810233156603246,-0.3008132767557931,-0.43157121035756,-0.5285358132446787,-0.4412330200565583,-0.6798215035364182,0.0,0.5585260121305473,-0.9356277657606137,-1.8319580211275577,0.1249749072968122,-0.8530621067244902,0.24646062581952455,-0.5409636320704184,-0.5329428994672675,-0.49965549811921656,-0.582289364954388,-0.5801895157157075,-0.46070454353904744,0.23816721789459686,-0.7057792108493336,0.34127847266529326,0.010113638804472198,-0.9672371014734811,0.144594470707646,-0.8149780807454841,-0.09114123510277414,-1.0292151613593976,-0.4093614799469798,-0.3742887344021282,-0.3899125907244377,2.842170943040401e-14,0.030980077766545308,0.5426273670286715,0.032211505123327606,10
0.4443602656479806,1.77529341853289,1.5616877380515133,-0.036675791062413025,-0.21107999079401418,0.17628423238551377,0.07615125703795614,-0.8315657113232091,0.2474289206804733,0.0590202642128232,1.9212159442617949,1.6340856283858904,-0.32361366633960376,-0.6647539625213434,-0.647174106966025,0.28281184505660206,1.9852777620018796,1.6736322361291023,-0.044831820896558974,1.5580115059864093,1.315522447798456,-0.6661371936655808,1.620906277896868,-1.1583542297590648,-0.45004350503211465,-0.6252324291160892,-0.5864745335613331,-2.220446049250313e-16,1.2633503054038113,1.8402713635046934,2.1793660512646897,-0.001577908286574424,-0.2889723824710734,0.27422042236110306,-0.6138455129077514,-0.5770289489567038,-0.7555444590396106,-0.544652979533983,-0.3833526934614846,-0.6458824665836099,0.5679097155882671,0.2796941568640242,0.7307412448748482,-0.501425301716158,-0.5492772988981006,-0.36464774387213705,-0.3183379087659543,-0.299427479806865,-0.42876257210967234,-0.5273766514998276,-0.5613880420755843,-0.6857819394913388,0.0,1.4889037175480337,-0.32781502239856564,1.7641492516029456,0.11368476713663661,-0.8490101242217986,0.24331604284190325,-0.4854013328729625,-0.5447502350813843,-0.522774670852231,-0.6341330878996604,-0.43852016408711114,-0.503809486262676,0.2063317018952907,-0.7057792108493336,0.34127847266529326,0.010113638804472198,-0.9672371014734811,0.13543525039193569,-0.808892974262342,-0.09792338550775553,-1.030118259493551,-0.4365848209165081,-0.39686602253121994,-0.41744768927383674,2.842170943040401e-14,-1.3221348368505612,0.04192312627098441,-0.43938333529571605,10
0.23730954836047397,1.834920766121453,1.5243402016417766,-0.16757658051490484,-0.5662844403649103,0.30098785565614755,0.06577434986153344,-0.8118197675265516,0.2536258250327466,0.14295353713751507,1.929482669806028,1.6354222228291266,-0.33265219969280113,-0.6518343889739526,-0.6479245833133846,0.28281184505660206,1.9852777620018796,1.6736322361291023,-0.044831820896558974,1.5580115059864093,1.315522447798456,-0.6741244964027399,1.64541380438078,-1.1573296274616942,-0.37262202563620145,-0.5188280613452959,-0.5719376411841705,-2.220446049250313e-16,0.17297827053913647,0.7950362309024891,1.9654550801895645,-0.06222644502280372,-0.4924705384258805,0.3082556142321102,-0.5649513577037959,-0.5406106808021833,-0.7055259995310725,-0.49441821586836115,-0.370727508318567,-0.6209554081335259,0.4631290099622921,0.1305787723670802,0.7307412448748482,-0.501425301716158,-0.6258010630518861,-0.29454037361037616,-0.3171502424315405,-0.2814884597587739,-0.4235617853735272,-0.5178042452706555,-0.5068496151214527,-0.6369063880983619,0.0,-0.47104997554129135,-0.45458911027067617,1.5205367461871957,0.1031002345691437,-0.8490101242217986,0.24331604284190325,-0.4470420063511907,-0.5447502350813842,-0.522774670852231,-0.37493002535704895,-0.43852016408711114,-0.503809486262676,0.19571985536817588,-0.7057792108493336,0.34127847266529326,0.010113638804472198,-0.9672371014734811,0.13543525039193569,-0.8030014091869999,-0.09792338550775553,-1.030118259493551,-0.3276888253435001,-0.39686602253121994,-0.41744768927383674,2.842170943040401e-14,-0.25287438727337563,0.04192312627098437,-0.43938333529571605,10
0.5307984749448706,1.6409220521328525,1.5951440429605854,0.027242940936851787,-0.47796857873602455,0.503405344627898,0.05885629644418101,-0.8315657113232091,0.2784131325997205,0.2566845459274733,1.9000101241432756,1.6539685828467798,-0.2164764914563571,-0.5130850936535731,-0.606296294091936,0.28281184505660206,1.864385229273108,1.677223172326909,0.042851208899255894,1.5580115059864093,1.3498411522688303,-0.6552323704652825,1.5635689947715967,-1.1423386098211963,0.026124360770215887,-0.49569585317002396,-0.48886725443439216,-2.220446049250313e-16,-0.3908549113339326,-1.0477971278879532,1.1753880038946594,-0.057521888974937825,-0.6346725925028662,0.4043395812853662,-0.5630626633282307,-0.5994776473076401,-0.5785807583117252,-0.4736690724094833,-0.39597787860440226,-0.5461742327832738,0.4631290099622921,0.1305787723670802,0.7349309509648481,-0.501425301716158,-0.7528966112791838,-0.10302752619508988,-0.3170743307075736,-0.2688000552687612,-0.4032379546567892,-0.5064370183872168,-0.43495803016395157,-0.5570366127083122,0.0,-0.5245691841050977,0.08566988499415765,1.6489253258921281,0.09322138015791527,-0.8463087575310093,0.25023410023600634,-0.42128950656393443,-0.5535235036227563,-0.46641000787756415,-0.47861228718634374,-0.43852016408711114,-0.41760391105107747,0.18864517310657405,-0.7057792108493336,0.34127847266529326,0.010113638804472198,-0.9672371014734811,0.1598599396702896,-0.7973781263860068,-0.10242941426605842,-1.0280441121979762,-0.2868524526677104,-0.44202285660852936,-0.3899125907244377,2.842170943040401e-14,0.6185953854921693,-0.44236552455284917,0.7450423750355917,10
0.4343068217966277,1.722385929229446,1.5632429558830647,0.09179675236454651,-0.7147715557171138,0.5747936503812594,0.05193824302682865,-0.8085285574929371,0.2877083342070708,0.41412046024701327,1.8904857786718514,1.663492417087473,-0.40790165568102055,-0.5022279441104652,-0.6120740620019666,0.48030963148021455,1.864385229273108,1.677223172326909,0.042851208899255894,1.5580115059864093,1.3498411522688303,-0.6617041152316602,1.5365314802606023,-1.1347813432077567,-0.3842372296623164,-0.3731041507002946,-0.49925317929835683,-2.220446049250313e-16,-1.0022041738469056,-0.5151855426135948,0.23355038276426915,-0.054550589991358,-0.8019883129881445,0.5158702889347347,-0.5603897971220443,-0.5593918990083948,-0.5153320779179591,-0.4736690724094833,-0.5306464971454127,-0.3758393900972634,0.4631290099622921,-0.01661254753361248,0.7349309509648481,-0.4951115310137767,-0.7528966112791838,-0.035485053573628966,-0.31696537893436555,-0.24142314459394146,-0.37657425321699234,-0.5064370183872168,-0.5762621659023961,-0.33888482472604864,0.0,-0.4207340722762283,0.31381306468815956,0.4376258403613169,0.08051995424879246,-0.8375294170861823,0.2628124321464917,-0.42128930154108063,-0.579432645201218,-0.45290352095110603,-0.5822945490156386,-0.6156015410752947,-0.3313983358394789,0.18157049084497232,-0.685843144195532,0.34757432857044984,0.010113638804472198,-0.9672371014734811,0.16901915998599992,-0.7901481676387982,-0.11694805601327436,-1.0243920221268557,-0.4093614799469798,-0.4307330836344203,-0.3486106312709192,2.842170943040401e-14,1.9114530424858684,-0.6119751225257096,0.11059379512338495,10
0.6172366842417606,1.637562982967038,1.5375675205144288,0.26752655984881557,-0.7632967593068385,0.6497965597039962,0.020807175598348642,-0.8216927394248803,0.30010214291161735,0.5606304024657651,1.8430421865341515,1.6688391370504951,-0.5304769663128809,-0.5104558444685803,-0.6299224652471644,0.6655729784012188,1.8611616264711737,1.6879974520125867,0.13053423869507075,1.5337823921720684,1.3498411522688303,-0.6340672908549538,1.4015317367593383,-1.1306544331208057,-0.5971562085847179,-0.3129594619857227,-0.5345576683629641,-2.220446049250313e-16,-0.7293433156706274,0.3412360347157404,0.5344987770954825,0.0754282414867532,-0.9187505553214871,0.6383969796703599,-0.48094271551538753,-0.5113624428691611,-0.4798040821499774,-0.47250875587638225,-0.4001862621603191,-0.32598527319709536,0.4631290099622921,-0.06471428853571765,0.7349309509648481,-0.3404241832870377,-0.7528966112791838,0.03547729657602881,-0.3113009942183899,-0.2169284671052631,-0.34305386249350484,-0.45139571442642845,-0.46594576444365354,-0.34246107458031544,0.0,0.473241945963858,0.9408819244324277,-0.5375236334349619,0.05793959866062059,-0.8402307837769716,0.2766486098263574,-0.4831073617770971,-0.5859678887933714,-0.4557608221879774,-0.6341330878996604,-0.5447704069593706,-0.3313983358394789,0.14973459753305202,-0.685843144195532,0.36331381093851756,-0.044680590233918634,-0.9672371014734811,0.1812316572798665,-0.777067204396133,-0.11255039331844817,-1.020112702329881,-0.42297315043174416,-0.44202285660852936,-0.33484377036679974,2.842170943040401e-14,-1.3747491926040405,0.105477578473358,-0.17953053940067823,10
0.8041846307159355,1.6887917976643194,1.5157817231855646,0.36973676209208656,-0.7992054112352937,0.40129294554833056,0.01043026842192594,-0.7591633689000358,0.3124956417740447,0.6495292866170487,1.8245319497772794,1.6589809831039541,-0.39465459083600934,-0.5258220303682188,-0.6147560786330344,0.6655729784012188,1.8611616264711737,1.680096215503606,0.32017447412219746,1.5337823921720684,1.3498411522688303,-0.5870628783775051,1.3493987025361251,-1.1384457552343317,-0.43069011729986434,-0.45868337263072395,-0.49925317929835683,-2.220446049250313e-16,-0.054767062476116374,1.3244247383952463,1.0174504799829438,0.24378634406528013,-1.1163983691103265,0.7035874612419101,-0.4204153573201351,-0.6310590831853271,-0.5722676766683582,-0.26938558650000716,-0.5390632642572468,-0.42777072216224393,0.4631290099622921,-0.10030957813823362,0.850566748438638,-0.2504529637087058,-0.969985271533801,0.03547729657602881,-0.3010653379950664,-0.18169057040170197,-0.3312238646838476,-0.33948089069045284,-0.516765670595149,-0.47478265121760876,0.0,-0.1348553724915317,0.6398153608511906,-0.299974744985511,0.0445324898909944,-0.8253734020446148,0.2898558331757031,-0.46319656579857604,-0.5011578189225235,-0.4557610977794675,-0.5304508260703668,-0.5447704069593723,-0.46070454353904744,0.13912275100593718,-0.685843144195532,0.36960966684367413,-0.05495446965131223,-0.917369354337398,0.19344384926435387,-0.7686582514385369,-0.1362264549264782,-1.0156527550714307,-0.32768737337390336,-0.4646001447376212,-0.3899125907244377,2.842170943040401e-14,-0.6005153302744417,1.692160780197232,-0.6539797991866888,10
1.198183294477617,1.7291040675610754,1.449646722283196,0.33506897574297956,-0.6021930922933656,0.38683456088161655,0.006971414662855593,-0.772327550831979,0.3651688640051887,0.8869245609030065,1.8018885342722777,1.6429408232148879,-0.2163716209984927,-0.6453018482900039,-0.5467961445397264,0.836851552023016,1.8611616264711737,1.6190400024950928,0.7198472213382799,1.4285106570590944,1.3498411522688303,-0.4366790674984682,1.2836186802458078,-1.1499962954586491,-0.2564858423088756,-0.45868337263072395,-0.47641009885431324,-2.220446049250313e-16,1.293180383582787,-0.07549944085606392,-0.600246564451972,0.4520093712928254,-1.1284659762959472,0.7284593338743696,-0.49283375913557514,-0.6391609672546957,-0.612949161285596,-0.40370896346577084,-0.5390632642572468,-0.42777072216224393,0.6313652748344287,-0.10030957813823362,0.9301711092333589,-0.2504529637087058,-0.969985271533801,0.03547729657602881,-0.29371658114976895,-0.1791830256660452,-0.32586603130921576,-0.3364895131312029,-0.5626275490097963,-0.47478265121760876,0.0,-0.40138348728388923,0.8810758942001842,0.26751671256392473,0.03253666687031542,-0.8172693695057391,0.3124968054579129,-0.46558006241512745,-0.4839325504716721,-0.384495721772523,-0.5304560101316156,-0.40310105533077417,-0.46070454353904744,0.1355855867404241,-0.685843144195532,0.39479277567465304,-0.061803836751218096,-0.917369354337398,0.24534650479921793,-0.7610135069546421,-0.14909423991128742,-1.006649413793538,-0.314075702889139,-0.3404205443893646,-0.3761457298203181,2.842170943040401e-14,0.46442393842661917,0.3970355631224693,1.5114284235856001,10
1.13385689800858,1.707267538053045,1.3453881695162075,0.36196639635509786,-0.7856183580463478,0.4871396507737996,-0.024159652765624335,-0.7427083060357353,0.39925168302163216,1.0359173087350542,1.8160856168217296,1.5893066348267821,-0.1646151002601273,-0.6668867039368722,-0.44909938126079735,0.836851552023016,1.8611616264711737,1.5227879072528507,0.7198472213382799,1.4285106570590944,1.3171177543122243,-0.3231676903740876,1.322145332518106,-1.1874004038303265,0.2119438397873196,-0.5905317482060205,-0.3684211479038923,-2.220446049250313e-16,-0.010120470218876876,-1.2782969740992278,-1.0366926502603815,0.5906699648334021,-1.231856008727602,0.723746767856196,-0.5371297288261864,-0.713397061253775,-0.6125889044129511,-0.5271117668620938,-0.6442731289565049,-0.4610068114402688,0.687110674663598,-0.10030957813823362,0.9301711092333589,-0.2504529637087058,-1.0710301810478948,0.03547729657602881,-0.2840871524196571,-0.15586540595316378,-0.32732051067904866,-0.48545999991661243,-0.677901978205387,-0.47478265121760876,0.0,-1.6654769770411992,1.5163132129971508,0.4135678609809709,0.015601379010112038,-0.7990353131766419,0.33702457784002315,-0.44654408295912623,-0.47503653634934595,-0.3027963105431934,-0.5822945490156386,-0.3322663795164768,-0.28829770335150845,0.10374969342850388,-0.6758751108686313,0.40423640213756423,-0.06865320385112388,-0.9007467719587037,0.2789307197026614,-0.7497513351352646,-0.17788998326824887,-0.995424916142056,-0.42297451165324096,-0.3404205443893646,-0.19716965436096465,2.842170943040401e-14,0.10155663008780427,-0.30012172646420154,0.7245814849111438,10
1.0494277307262108,1.6896328549208905,1.2831428066536106,0.14858018826220054,-0.7477687030625397,0.6073250380894561,-0.04491346711846982,-0.7295444532050495,0.43333419219595637,1.1878902370042002,1.809076879252662,1.5291561207903033,-0.3306513085383481,-0.6759978382212637,-0.38258260547651235,0.9958992655569218,1.8611616264711737,1.4653226304421445,0.7198472213382799,1.4285106570590944,1.2907804860167806,-0.2227894417840996,1.3027291209345573,-1.2255050651975652,-0.1480878426876849,-0.6321725652981038,-0.14829653153033745,-2.220446049250313e-16,-0.7013165909892476,-0.85329101585305,-0.2961311475393556,0.6141927410159187,-1.2429451638761726,0.7331718998925432,-0.5659920476100984,-0.714153171823842,-0.6028607753466984,-0.5271117668620938,-0.6737318827982572,-0.4319252545930832,0.7361459720036203,-0.10030957813823362,0.9301711092333589,-0.2504529637087058,-1.0710301810478948,0.03547729657602881,-0.28299287598059825,-0.1529529695420111,-0.3238555287201715,-0.48545999991661243,-0.720045335817398,-0.4318675357795524,0.0,-1.3597529259501184,1.979335873222751,0.27959353828345,-0.004156409784404074,-0.7828273156323826,0.36658367040799555,-0.44654443046852443,-0.4638769851122747,-0.24691408396098913,-0.5304560101316156,-0.4739357311450732,0.09962522998285472,0.08252600037427413,-0.6758751108686313,0.4168281139478774,-0.09947518456823505,-0.8874489055267368,0.3125146292967257,-0.736213733406266,-0.20297525775301814,-0.9805918694639775,-0.34130040508016457,-0.4081546665957658,-0.10079612106748802,2.842170943040401e-14,-0.8463389563170146,-1.2460864722172735,0.08410283191736954,10
1.0092263059889213,1.603970571355401,1.2349039650403344,0.3075738264031255,-1.0117457864215207,0.6660622535580946,-0.04837266677675191,-0.7163802712731062,0.47671219216360877,1.2847359299456027,1.8018885342722777,1.4641601952545356,-0.5128336656923435,-0.6321806720440972,-0.36282417116016985,1.1584404878545917,1.8289239478615555,1.4207882545649586,0.7198472213382799,1.4285106570590944,1.2684331185411206,-0.1510789031075886,1.2839017555526568,-1.263418306899841,-0.5429651372410347,-0.6321725652981038,-0.15867820335381722,-2.220446049250313e-16,-0.9711505492891402,-1.478219988965169,0.44644464825542185,0.6307824889412911,-1.3264399514511365,0.7378844659107168,-0.5677568602568495,-0.6164678441806746,-0.5949466388435215,-0.5402164730377361,-0.6400647454005878,-0.4319252545930832,0.7361459720036203,-0.31099518733499776,0.9301711092333589,-0.2504529637087058,-1.0710301810478948,0.05086672444121907,-0.28136574142721205,-0.12615745650250457,-0.3219289541650265,-0.5255444258832899,-0.7026921981221622,-0.4318675357795524,0.0,-1.886598000612544,-0.6318118251636676,0.3650968942725749,-0.018269126146713017,-0.7612165847065449,0.40243192473843337,-0.4440813098699636,-0.5286917250649885,-0.20761112842339147,-0.37493002535704895,-0.4739357311450732,-0.15898718541628182,0.0789884823781854,-0.6260346119641348,0.4294195109685432,-0.10974906398562866,-0.8741507066431222,0.35525804416192086,-0.7261882629233987,-0.23642239492161538,-0.9605662850982246,-0.27323933021334934,-0.40815579550532904,-0.18340141671568502,2.842170943040401e-14,0.16408040780209918,-0.11081294610635915,-0.2189357084127071,10
1.1961742524630958,1.7055888634468828,1.1150820797315806,0.1683049620720138,-0.8671406930807607,0.4907542543431748,-0.09679834889979523,-0.6867610264768624,0.4860073937709592,1.3815816228870053,1.8054828907864569,1.3781113673824497,-0.6398841283817078,-0.6288930790154108,-0.3371400633551053,1.336713237833351,1.8289239478615555,1.3101680012547192,0.7198472213382799,1.4285106570590944,1.2005933628572563,-0.05908226396976943,1.2938029511549116,-1.3053410483181334,-0.5003734129896424,-0.6344891022216563,-0.3081980946386424,-2.220446049250313e-16,-0.34385249305759263,-1.687325897846826,0.036582141395409315,0.5473385219989986,-1.349270557762645,0.763803576865931,-0.5576271787535052,-0.6103592631646614,-0.6168560626358066,-0.49107376672905856,-0.5453758740662886,-0.4236162237651426,0.7361459720036203,-0.31099518733499776,0.9301711092333589,-0.25729288053288546,-1.0710301810478948,0.05086672444121907,-0.2890736446440364,-0.11929341305174407,-0.31471548785419007,-0.41306871395388534,-0.6159264893378495,-0.5451157407984712,0.0,-0.4043703901848972,-0.16578239556195104,0.08311617438885363,-0.04014380828285911,-0.7463592029741882,0.4376512876300106,-0.3864212943492903,-0.4830873010589364,-0.27981005996994296,-0.42677374830232073,-0.5093512982030354,-0.029681265065756964,0.029466414008124164,-0.6260346119641348,0.4829338139779029,-0.11317357630311647,-0.8442299253808133,0.3644172644776312,-0.7097114225950435,-0.2582252923959206,-0.9401139179898746,-0.3821367777559542,-0.4194444395698749,-0.14209954904491046,2.842170943040401e-14,-0.4495736723485747,-0.034418699929874896,-0.33611812699723603,10
1.3087464755062548,1.7929298216185345,1.148538384640653,0.09358990916859676,-0.970984626854683,0.6769060494608268,-0.05874957395317461,-0.6373958378839613,0.5448772105122572,1.4088975702654047,1.8191407830539843,1.313449419362452,-0.5737341835411206,-0.5693305171504762,-0.4269861399211865,1.336713237833351,1.8289239478615555,1.3101680012547192,0.8320026532394234,1.49200770398963,1.0936473486263494,-0.025381839454462405,1.3329712572099037,-1.3354098606699087,-0.5003734129896424,-0.6344891022216563,-0.24381982081970974,-2.220446049250313e-16,0.5489801460380697,-0.049066497955255604,0.19829005997451074,0.4473048071313339,-1.4732081364090233,0.8478443225101756,-0.5394869014757651,-0.6638008950898686,-0.6448604200897009,-0.45394374502370605,-0.49697932527257666,-0.5025518975124958,0.688659153998705,-0.31099518733499776,1.0231825130414962,-0.25729288053288546,-1.1894421916599567,0.06112634301801258,-0.2966284761473661,-0.08418515412001552,-0.2868829953132205,-0.42084629952879093,-0.5316397944219607,-0.4723984846480975,0.0,0.5821613465666259,-0.14413975269731616,-0.283400363075002,-0.0535509170524853,-0.7186704307608208,0.4741284333993088,-0.4503133627946099,-0.4325422439883505,-0.25417346558733755,-0.5822945490156386,-0.3676854882728138,-0.029681265065756964,0.029466414008124164,-0.5961301797134398,0.5175608640614404,-0.1439955570202276,-0.7943621782447302,0.42242586335004934,-0.6999506376999869,-0.2979852667697937,-0.9147865572369994,-0.42297315043174416,-0.3629978325184564,-0.2522385665013465,2.842170943040401e-14,-1.10453108185554,1.106902424636441,0.19361130960000342,10
1.6826423684546044,1.6652765935501266,1.2411280232883262,0.4701537977382552,-1.0825925887507546,0.6624476499887192,-0.09333949514072488,-0.6373958378839613,0.5758614224315044,1.5444815403833683,1.8101552598165107,1.2910599225828978,-0.2781016915249456,-0.5646782739811343,-0.5014273322154505,1.336713237833351,1.8289239478615555,1.3101680012547192,1.2112831240936766,1.49200770398963,1.029797493762269,0.16540618798229598,1.3083932243255059,-1.3456439870668842,-0.28357741374726103,-0.5720278765835319,-0.35595973928332864,-2.220446049250313e-16,1.3077772773978802,0.5104898536628207,-0.2668540109125679,0.49212189134390155,-1.5730105006841597,0.8986353018083678,-0.4918710970797232,-0.6394949157311207,-0.6679633408082697,-0.45394374502370605,-0.49697932527257666,-0.6292644049277284,0.688659153998705,-0.38122373424190403,1.0265342806592601,-0.1620601911161692,-1.1894421916599567,0.06112634301801258,-0.29045841379317533,-0.050421853281506966,-0.2687194099064666,-0.42084629952879093,-0.5836992278158017,-0.6261776190044189,0.0,1.2098983251515494,0.6383300938111304,-1.708347422213054,-0.06766363341479416,-0.6970596998349831,0.509976624838087,-0.46085430060505805,-0.42652040277199516,-0.24520146985325997,-0.5304508260703668,-0.19059702788788038,0.09962494263381157,0.029466414008124164,-0.5828395793675699,0.5521875993553305,-0.16454331585501486,-0.7943621782447302,0.45295680127533655,-0.68900023294591,-0.32846010902960937,-0.8875199058634514,-0.3004640324043749,-0.23881823217019985,-0.18340279345684518,2.842170943040401e-14,-0.5044928294624937,0.06290844603850412,0.15729321348238293,10
1.61228472905263,1.7862116832869053,1.1462055578933257,-0.000849927337685605,-0.6594528255329161,0.5657571636659116,-0.062208427712244954,-0.5814488874263456,0.6347315490149217,1.6835420486358035,1.8308218896531059,1.2616531338813153,-0.2528190344211004,-0.5265844636905586,-0.5399661903456279,1.336713237833351,1.8289239478615555,1.3101680012547192,1.2112831240936766,1.49200770398963,0.9866996998600798,0.3490274187516664,1.366815059483914,-1.355948508558354,0.018378248597168505,-0.3499672052307004,-0.3663456641472933,-2.220446049250313e-16,0.03427189184978254,-0.2044406379380714,0.5009178176688093,0.4302198400041564,-1.5433307087386325,0.8865920803993563,-0.4511270044752567,-0.5911682790110702,-0.6617800156324014,-0.33600124630441697,-0.49697932527257666,-0.6292644049277284,0.6071056975968186,-0.38122373424190403,1.0265342806592601,-0.1620601911161692,-1.1176055661977897,0.06112634301801258,-0.2924546655947922,-0.05791067411001387,-0.27311337291126003,-0.3658049955680026,-0.5836992278158017,-0.5713416511876642,0.0,0.6785757177143329,1.1758501755747028,-1.074385888736194,-0.07119181250537135,-0.6666696284643183,0.550856199354387,-0.47833707862982733,-0.38355923043118,-0.19203510344134678,-0.5304560101316156,-0.1197658937719562,0.18582649495879522,0.029466414008124164,-0.569548646751707,0.5962582549158025,-0.1679681706374329,-0.7378456641184875,0.5109657054571339,-0.6862893133062121,-0.36948668755413516,-0.8525556479197931,-0.34130040508016457,-0.3404205443893646,-0.08703063690452859,2.842170943040401e-14,-0.425664767212984,0.10425924514177318,0.4168555366145847,10
0.24534983330793186,1.3469854406124224,-0.3196541737014321,-0.8376212102860806,0.49926827883479324,0.28472216180204923,-0.08449390683522251,-0.5449047378544574,0.6012419124076017,1.4948172911060194,1.7758303696644138,0.9278172848032455,0.32142433318887204,-0.1994122308093863,1.2853299281570114,0.6725635753434639,1.5823026529059747,-0.014388755461146449,1.2112831240936766,1.49200770398963,0.9866996998600798,0.24860337480099626,1.23694956228078,-1.12983389285665,0.018378248597168505,-0.3499672052307004,-0.5137900716755195,-2.220446049250313e-16,-1.5656895123496553,-1.6888187436179711,-2.085414515828361,-0.044182001087711524,-1.0355331944294968,0.776108606783261,-0.07541895612760803,0.10038957374786098,-0.53854266534415,-0.4179057448906707,-0.27183021895318454,-0.44023428542102405,-0.11548757306966378,-0.38122373424190403,0.8354838147519299,-0.1620601911161692,-0.17509538209582998,0.06112634301801258,-0.25822352020253864,-0.1012959001925887,-0.3058600714075662,-0.41067561974819655,-0.3705034665035893,-0.47716683731826254,0.0,-1.4936770731299738,2.00854201816942,-1.1759405385675525,-0.07856056036744435,-0.6314818517640866,0.5761332042695226,-0.5019483501934029,-0.3674298537839801,-0.24545875356230093,-0.5534061948932221,-0.1197658937719562,-0.2020921281399104,0.029466414008124164,-0.5396442145010121,0.6057018813787138,-0.17824205005482652,-0.7009294796148152,0.5109657054571339,-0.6804891974846274,-0.4154672634763,-0.8306816463770947,-0.35491207556492893,-0.3178432562602728,-0.2358358887549234,2.842170943040401e-14,0.35138529260390583,0.18417994695248122,-0.6396762931828388,10
-0.040098808329006856,1.2109336796527328,-0.11035627232989381,-0.4957251080655292,-0.08491445828058243,0.01995286859767874,-0.09487081401164521,-0.5646510107523722,0.5702577004883546,1.1893813443491783,1.6699805084351598,0.664658743119891,0.7675885649986375,0.067758858440002,1.5955173452558162,0.4243812765275368,1.451737661181127,-0.014388755461146449,1.2112831240936766,1.49200770398963,0.9866996998600798,0.1029300126502712,0.9902103880056822,-0.9675733726382713,1.849513181197469,0.5267070074458288,2.7569766888622143,-2.220446049250313e-16,-0.5245433624596824,-0.535886485132647,-0.5061610949341802,-0.31925923921855137,-0.7726550738399676,0.6397060265014329,-0.04436241604684752,0.12724264629973964,-0.34299511594995213,0.27009214343081667,0.19530156238443463,-0.4069981961429992,-0.11548757306966378,-0.38122373424190403,0.5899672245898782,-0.1620601911161692,-0.17509538209582998,0.06112634301801258,-0.2469608407978008,-0.14530840790217595,-0.327803979096939,0.009874369976766858,0.3632865068982327,-0.2053711452728573,0.0,-0.22976278057960797,0.8158375262663442,-1.0040018361603127,-0.07816734245568013,-0.606424166387568,0.5932343060211746,-0.5046085734386967,-0.4301313471861675,-0.3842268214151031,-0.5822945490156386,-0.2577424345628753,-0.2800459008583622,0.031437589432645886,-0.4898037155965157,0.6655117255035827,-0.17824205005482652,-0.7009294796148152,0.5109657054571339,-0.6808155589126841,-0.44799524814075165,-0.8162606557960358,-0.35491207556492893,-0.26022183065712884,-0.3486106312709192,2.842170943040401e-14,0.4060044563610159,-0.2393524337813133,0.5389071288751813,10
0.1649428669439788,1.4259278658927927,-0.08001359000571047,-0.6320053777232238,-0.5497858825929351,-0.35229425386689606,-0.1157259768335702,-0.6207050946392764,0.5051506379508642,0.9067910743150895,1.591446799788935,0.400831562024841,0.8429967234952456,-0.03254508420545227,1.5519042096206177,0.4243812765275368,1.451737661181127,-0.014388755461146449,1.2112831240936766,1.4853241645433861,0.9866996998600798,-0.08213078411104378,0.7860973927476694,-0.816325693707167,2.0043640684562076,0.1936136317694206,2.750750237592417,-2.220446049250313e-16,0.5784054686848503,0.32059273992613874,0.6886863293876768,-0.6198401262823158,-0.631105315777349,0.34152173637143207,-0.026092087762832287,0.04478130251767002,-0.1375845511643666,0.03420714599223845,0.28578201568765027,-0.016474325803334258,-0.11548757306966378,-0.38122373424190403,0.24478805710011317,-0.1620601911161692,-0.17509538209582998,0.0474468469130222,-0.22488454053755602,-0.18402212940320956,-0.3586867433396037,0.05175362639984977,-0.03459625469864742,0.01635691209481557,0.0,0.9304107055633398,0.5994315170162491,-0.6060661094880919,-0.08979055213048381,-0.6029991288061366,0.5851706183494418,-0.4921671306635339,-0.4492082713000512,-0.30037314201967796,-0.6052447337772451,-0.2577424345628753,-0.2800459008583622,0.010110253319714286,-0.4898037155965157,0.6251508029793348,-0.18166656237231432,-0.7009294796148152,0.5109657054571339,-0.6713142107086528,-0.45246131856745603,-0.8230093575258957,-0.4365861821380054,-0.31747575856725063,-0.3486106312709192,2.842170943040401e-14,0.27627401246141886,-0.2619650311577487,-0.7491095020179946,10
0.1669519089584998,1.6459615158583194,-0.15548467828006696,-1.0886638091945542,-0.772031304857402,-0.2583146943116811,-0.10880792341621776,-0.6207050946392764,0.46796952167934375,0.5323217396926189,1.5873136210408054,0.10091393563187256,0.5052075804361927,-0.04383699918253983,1.0738746331758784,0.4243812765275368,1.451737661181127,-0.014388755461146449,1.1399122449161918,1.4853241645433861,0.889330428317872,-0.4062216410796815,0.7750165694045348,-0.6478729183549743,-0.6281327288099952,0.14041381653118457,-0.40165015321190045,-2.220446049250313e-16,2.147919602669884,0.36057081329727586,2.248625798996692,-1.265586849734138,-0.5267368313086441,0.07475455302925552,-0.17588231343336402,-0.07118558919374722,-0.19057541261118136,-0.21478257551429575,-0.24026727333347378,-0.02283594614317673,-0.3322752381323465,-0.07337261074280392,0.24478805710011317,-0.5766643954025338,-0.17509538209582998,-0.044034726382425685,-0.16949029844851063,-0.21906566768158914,-0.392848236883648,-0.2377741222909261,-0.03459625469864742,0.01270613140062704,0.0,0.7937573030103005,1.1920737315114793,0.40930897480288975,-0.0929461178751858,-0.5995740912247053,0.5632707529978432,-0.4819716129326609,-0.4724474766213168,-0.17322645216918073,-0.5289370801851163,-0.2577424345628753,0.2637845779129056,0.010110253319714286,-0.47295226634424703,0.5873759823380427,-0.18166656237231432,-0.7009294796148152,0.5109657054571339,-0.6686710709262439,-0.4569273889941603,-0.8411996621592946,-0.3817393010787319,-0.31747575856725063,-0.0593162866560899,2.842170943040401e-14,0.688313005422784,-0.009125853192870848,-0.3454550639389792,10
0.26746164613578466,1.4880749453440894,-0.11113547470656246,-1.0635595453864861,-0.2867792848608928,-0.002638370398781178,-0.07777855035602914,-0.6504314509247248,0.4864994024000955,0.20006722038118088,1.5235161852259567,-0.1690955935957801,-0.5697248166922774,-0.2666626563397063,-0.4240228337373802,0.4243812765275368,1.451737661181127,-0.014388755461146449,-0.22427800623168798,1.3457962953510965,-0.3684968382327137,-0.6993894632558026,0.6060690178073548,-0.48694954618589315,-0.6281327288099952,-0.2944555903632336,-0.4826365501241101,-2.220446049250313e-16,-1.4575920496576649,0.17151988841679291,-1.6960391123055365,-1.7058187606284643,-0.40149464994619816,-0.08992341907213282,-0.3574330783918391,-0.12363390818632325,-0.3935468507244964,-0.17765251802431611,-0.15189097733305024,-0.07476731224189537,-0.3322752381323465,-0.07337261074280392,0.24478805710011317,-1.0122816094567482,-0.17509538209582998,-0.3099298014755664,-0.10148782158990137,-0.23989838279537454,-0.421998844051143,-0.14803286412839925,-0.17466088350287975,-0.3365751499341742,0.0,0.3314940381227132,0.8262904679731363,0.276351017096012,-0.09612242931294039,-0.613729714433436,0.5331826367536023,-0.5115164601237927,-0.4230875913987456,-0.24402467763404873,-0.5289370801851163,-0.3311136747524393,-0.11588655292831185,0.010110253319714286,-0.5029648414018983,0.5873759823380427,-0.1970820960989458,-0.7009294796148152,0.4779659951832908,-0.6661544391850219,-0.4387923580141761,-0.8685634428293764,-0.3817393010787319,-0.31747575856725063,-0.11411618357379652,2.842170943040401e-14,-0.16205713711330438,0.33583195637573343,0.513681207339808,10
0.0001067332976567047,1.358743042669519,0.09349358624853535,-0.5913603824411784,-0.362478610729247,0.20520101652433526,-0.04318862916847887,-0.6668865137890252,0.40284229874796473,0.13947699900304347,1.5260321611762873,-0.08037357683722197,-0.5565471837078766,-0.27085762159066834,-0.42101120295871025,0.4243812765275368,1.451737661181127,0.13717346643621522,-0.22427800623168798,1.3457962953510965,-0.19051718621968036,-0.6973765622569781,0.6114636754466666,-0.6157815645532753,-0.4616666375251417,-0.32683973434975033,-0.5200207759858015,-2.220446049250313e-16,-0.13467689849508227,0.11980500589475247,1.9516636374050413,-1.6038041811240173,-0.6910968042517703,-0.11296262356740133,-0.33371099616500344,-0.4506641674196203,-0.4348747713795538,-0.3414615330891372,-0.31601838419097933,-0.18473195332453216,-0.3322752381323465,-0.07337261074280392,0.24478805710011317,-1.0122816094567482,-0.6502728661619804,-0.38516698102572405,-0.12297499156854179,-0.2502254565331505,-0.4255578432682214,-0.10735015480816068,-0.4324789756792603,-0.3365751499341742,0.0,-0.41148476938432815,-0.33950384175078485,-0.09793562317025313,-0.08769613564178023,-0.638761084259264,0.4929115432362494,-0.43745584256128783,-0.4469632491267016,-0.22158855131708122,-0.48165014707934356,-0.3311136747524393,-0.3736570356288762,0.010110253319714286,-0.5195783410367305,0.5212088143828757,-0.16283560306434688,-0.720876777940237,0.4474350572580036,-0.6727551409604176,-0.4071620268352503,-0.9003826535702713,-0.3553122746851455,-0.40778724416338097,-0.3210755327215201,2.842170943040401e-14,1.086985045753277,0.8746514946196616,-0.044241343060762155,10
-0.17679188621453928,1.4838765388751936,0.2693351827110015,-0.25663691722988013,-0.767178781318282,0.3290009926039736,-0.07086047387872922,-0.6701773947213824,0.35946427812417103,0.10570535017950318,1.5844384302678414,0.0011638170513449308,-0.4650680153267618,-0.44397916302488355,-0.1822704347296099,0.3055339696799364,1.5935860880078818,0.13717346643621522,-0.22427800623168798,1.3457962953510965,-0.010142939900631512,-0.6875070318042243,0.7361308068335674,-0.7128650630521894,-0.4616666375251417,-0.5118879251632819,-0.05691995671367849,-2.220446049250313e-16,-0.8584749113167938,0.9281291010014329,1.1737690087517074,-1.5047608965463373,-0.9203813194039043,-0.023423886380028357,-0.24618045066487,-0.5048655210022599,-0.33067325948068776,0.09536253690424153,-0.2507882666984327,-0.07476731224189537,-0.3322752381323465,-0.07337261074280392,0.24478805710011317,-0.8018226176521753,-0.8144708376555085,-0.2680363612882924,-0.1335133775178794,-0.21611222939196223,-0.41561319265967167,-0.10735015480816068,-0.25151051650536255,-0.09219745156271765,0.0,0.3046242058996109,0.06383475041546002,-0.008314444495446844,-0.08279801635695852,-0.6604157119548593,0.45012475818013553,-0.434184772578337,-0.5203721064335229,-0.2183885678243436,-0.27277187753550464,-0.43852016408711114,-0.11588655292831185,0.010110253319714286,-0.5229009080556999,0.47713813783642706,-0.16283560306434688,-0.7775015161594866,0.3832804584574734,-0.6767278771535445,-0.3793642997435109,-0.9309485725673003,-0.32808748174602,-0.3513417660215256,-0.11456582723667157,2.842170943040401e-14,0.23732772792762608,0.19909640190845362,-0.7508884328878519,10
0.10262551248946253,1.6148888361094162,0.23899090692592515,-0.23691214342006692,-0.7962938907515267,0.31273529874987527,-0.06072002340354461,-0.6935252420786162,0.3561743538464441,0.09030910742306764,1.6248736528844478,0.06966890183324337,-0.474912208260977,-0.4153528356504987,-0.12504373057701237,0.3055339696799364,1.5935860880078818,0.13717346643621522,-0.22427800623168798,1.3457962953510965,-0.010142939900631512,-0.6871862693529348,0.8348419339545357,-0.7944315569019988,-0.4616666375251417,-0.322211397796967,0.33142091691603226,-2.220446049250313e-16,-0.6115825403490158,-0.2526800218422095,-0.04818065272942967,-1.3410918692178282,-1.0032238002771678,0.1692513046603691,-0.16587501334790355,-0.46702460544615293,-0.39910960849650917,0.05714042205731787,-0.6590025403525472,-0.3779166392958141,-0.3322752381323465,-0.09742346548187907,0.33193389160259756,-0.7844597525308271,-0.8144708376555085,-0.2680363612882924,-0.15386661155986406,-0.19615409039082632,-0.4172652397422393,0.22768389657650262,-0.2453129615261688,-0.28762510676356073,0.0,-0.09117015576643482,0.6649053296312658,-1.0395325291556698,-0.07157677918230242,-0.6753588297063435,0.41988559713353624,-0.4645525415496206,-0.5061382866268492,-0.22279793881978074,-0.5858383732867211,-0.4739357311450732,0.016085391851346137,0.017184935581316108,-0.5464735590229018,0.4737956803747677,-0.16283560306434688,-0.7775015161594866,0.36490207541792613,-0.685916747761256,-0.35914898478399526,-0.9504439466924506,-0.4102919202144589,-0.44202285660852936,-0.004156509599144025,2.842170943040401e-14,-0.7485693324465201,0.529726123705181,0.26100735970412525,10
0.36596234129854854,1.6560387233557636,0.2140930804730649,-0.26440729275992086,-0.6235441895051986,0.22959954990278605,-0.09185074493281271,-0.6803613892479301,0.3685678527088715,0.1394769990030435,1.6270300459641713,0.14903441529907122,-0.38635932805635015,-0.4062614155318642,-0.24314840076503405,0.3055339696799364,1.5935860880078818,0.17811690611559425,-0.12435877538320891,1.3558216045204627,-0.010142939900631512,-0.6809015647423934,0.8406054449064226,-0.8943361901857418,-0.26810104633499054,-0.322211397796967,-0.21474603606538412,-2.220446049250313e-16,-0.19404362895565255,-0.1825268127739794,-1.265811664943443,-0.9996401545308383,-0.9533226181396001,0.31061189509645615,-0.23935646883719638,-0.4927457680485213,-0.5812870713152835,-0.5402164730377361,-0.3475813642858565,-0.47139309146676,-0.3105964682433649,-0.09742346548187907,0.569018707868698,-0.7844597525308271,-0.8144708376555085,-0.2680363612882924,-0.2217933620341205,-0.208636790201878,-0.41800526093949714,-0.24495341471013155,-0.25151051650536255,-0.5618049653784771,0.0,-1.4870681129815957,0.3433728733560576,-1.4471126257059213,-0.06811750778148354,-0.6876006483005306,0.39970907645866127,-0.4982771020139595,-0.5600470694400023,-0.2588605509174379,-0.5858383732867211,-0.5414232658829716,-0.4607088537747055,0.03452603467176999,-0.5464735590229018,0.4737956803747677,-0.16283560306434688,-0.8075304993513592,0.36490207541792613,-0.6888105219992032,-0.34272834245734235,-0.9629424279831572,-0.4102919202144589,-0.46353437884966586,-0.29354043417212106,2.842170943040401e-14,0.3076977500353552,0.014877531284102654,1.7074914270763422,10
0.19710400673381043,1.6468008531614007,0.2864521396234254,-0.13589739863226694,-0.8283205365692761,0.25038347971186165,-0.07801498399731975,-0.6671972073159869,0.37786305431622175,0.12209430833068545,1.66099535324566,0.23441494594953893,-0.4073464219914379,-0.3740682728541063,-0.48256972903141837,0.3055339696799364,1.5935860880078818,0.3670316314945277,-0.12435877538320891,1.3558216045204627,0.007415238962997756,-0.6824578418207322,0.9263542475168716,-0.9950487223957879,-0.40359854586147875,-0.23431563894298457,-0.4556425021668685,-2.220446049250313e-16,-0.03770382279332695,-0.980518976312764,-1.41301685000726,-0.615352224324876,-1.1353151672736328,0.38391846187328044,-0.46669080025635074,-0.5516756249462459,-0.7059033337312959,-0.5544132723549496,-0.5895640048289174,-0.558637796042054,0.09717079685250009,-0.1291706258918922,0.7617450507205004,-0.6955408424368922,-0.8760450898993299,-0.2680363612882924,-0.2891484315150692,-0.17263217114197246,-0.4121481491808851,-0.5524668043122617,-0.5477534454911182,-0.5939912921914481,0.0,-1.7313575896240438,1.5215746523602216,0.27318324614380735,-0.06816574034177114,-0.6910410790158903,0.3776581034130448,-0.49811203761921924,-0.5828368152014833,-0.47841497133245275,-0.5858383732867211,-0.6156050827736697,-0.503809486262676,0.03452603467176999,-0.5464735590229018,0.4737956803747677,-0.16283560306434688,-0.8241530817300536,0.28246880762111265,-0.6887717511399241,-0.33806388717061564,-0.9772270536929668,-0.4093614799469798,-0.4646001447376212,-0.4045322968858413,2.842170943040401e-14,0.3157126560757959,-1.3253494496282907,1.243734164492369,10
0.3398283275522798,1.461200672064082,0.40004837322329445,0.3906569737712666,-0.575018985915474,0.5160564349126211,-0.08493303741467219,-0.7033981920368612,0.37166645980606766,0.20602656412894832,1.6829199710574203,0.30024649965488776,-0.3773079292402032,-0.4869643800055667,-0.4961331078936712,0.3055339696799364,1.691911750532839,0.4783697778258771,-0.12435877538320891,1.3558216045204627,0.12393963041796609,-0.6808036810161128,0.9755840632328092,-1.0584819313133969,-0.32616913799865344,-0.23431563894298457,-0.47641009885431324,-2.220446049250313e-16,-1.0508209185562158,-0.4622219557792165,1.5747941905999936,-0.20854742091060394,-1.206742347662976,0.4739808160772899,-0.33452410221324974,-0.6670831035932511,-0.6116170020255064,-0.5402164730377361,-0.5895640048289174,-0.5191699251346393,0.3795109144469298,-0.1291706258918922,0.7843694443861529,-0.23203780634376076,-1.0489266119418421,-0.0910579758580964,-0.29786391078015145,-0.1608673763069426,-0.39181986564962595,-0.45913591464334064,-0.5477534454911182,-0.599951708615226,0.0,2.2812832186388357,0.5531642204480948,1.5672474552004343,-0.07668161683216043,-0.6985334877317091,0.3713300410627576,-0.5333516064063757,-0.5631659555229469,-0.5385897668550256,-0.6305892636285779,-0.5093548399014085,-0.506475223342765,0.03452603467176999,-0.5564415701984697,0.4737956803747677,-0.1801929357770355,-0.8244669382488065,0.2578549893592909,-0.6820981498224408,-0.3275623599411818,-0.980747179952992,-0.4220426194161648,-0.429667317746465,-0.43206601869408034,2.842170943040401e-14,0.2825934998299431,-0.48344816523575507,-0.0878659047182159,10
0.4242574948346488,1.628325112772675,0.2833401104994296,0.4797173202792941,-0.36830163579604347,0.5151527877216255,-0.09530994459109489,-0.7033981920368612,0.3623709483565981,0.3545229542636226,1.7138301121066546,0.30325400824720766,-0.5484656974959041,-0.5282527217688604,-0.49713972362894826,0.5484724259355003,1.691911750532839,0.4783697778258771,-0.06522409725838807,1.3558216045204627,0.12393963041796609,-0.6855698241402652,1.052998481744727,-1.0612591552610888,-0.457789617205162,-0.5951648220531262,-0.47641009885431324,-2.220446049250313e-16,-0.617017307237289,-1.931618346902816,1.399665497807822,0.09649040651490455,-1.0726940765924098,0.5279135060542647,-0.2359046824997947,-0.5601381227499282,-0.5678318030719959,-0.3556583324063508,-0.3475813642858565,-0.47139309146676,0.3795109144469298,-0.1291706258918922,0.7843694443861529,-0.15364183592659433,-0.8807815708411625,-0.0910579758580964,-0.28448632249288847,-0.18789646048883035,-0.3776054500990639,0.04816396548703872,-0.4857779363154471,-0.3543819269590138,0.0,0.6901103901092329,0.6026952013882114,0.42292384062875665,-0.0816693189362112,-0.7053505885415768,0.37192003610657354,-0.5242995932667652,-0.5617604170688928,-0.5417471391179411,-0.6341330878996604,-0.5447706430725966,-0.546910118750646,0.03098851667568118,-0.5564415701984697,0.4737956803747677,-0.1801929357770355,-0.8244669382488065,0.2578549893592909,-0.6780511592077643,-0.31798782661594516,-0.980450638168065,-0.4229745116532413,-0.4307342878046208,-0.4449814110820758,2.842170943040401e-14,1.1339927483044985,0.7140094138424256,-0.23500408276505091,10
0.034276915102009295,1.8164450257327271,0.14173402132270438,0.06250844622064228,-0.9166363981981619,0.3895455024546029,-0.11952295860222246,-0.6573242354176582,0.4181427776849384,0.337636621288638,1.7569605500369345,0.28236843685885266,-0.49965689106253197,-0.381079731542839,-0.42335762654985115,0.48904698280434167,1.691911750532839,0.41156747846397,-0.06522409725838807,1.5154018031470928,0.12393963041796609,-0.6839818839978073,1.1732206684345172,-1.0395351095701166,-0.457789617205162,-0.6067285574936007,-0.40995634127878144,-2.220446049250313e-16,-0.9773679212089394,-0.05883577099556691,0.35584398403568623,0.22052664002585612,-1.1131368676638247,0.5501672850245783,-0.2802576095280936,-0.5155921660900905,-0.5724558256233988,0.006837399215539209,-0.2781428287622266,-0.37168485766642395,0.3795109144469298,-0.21671578568901628,0.7843694443861529,-0.15364183592659433,-0.8807815708411625,-0.0910579758580964,-0.28664120604681603,-0.17538590521698905,-0.3727125179403088,-0.05294450975678801,-0.4448740856376481,-0.3543819269590138,0.0,0.21270937903648116,0.1992619038018705,-0.10047662589608913,-0.09366514195689017,-0.6979219314421443,0.38449836801705894,-0.5125381405947157,-0.5360870069009372,-0.4570789941171092,-0.6341382719609117,-0.40310483314237333,-0.546914428986304,0.006227305625362702,-0.5564415701984697,0.4800912214902769,-0.19731618229433495,-0.8144934553119194,0.29754545290966766,-0.6681948010872606,-0.32827429363617944,-0.9734561148863538,-0.4365861821380054,-0.3855774537273114,-0.4449827878232358,2.842170943040401e-14,-1.397172543437184,-0.013648682832824865,1.924612693447516,10
0.4544095926099595,1.707267538053045,0.1323963404898237,-0.05281425126412578,-0.7836773390902572,0.39406375321497356,-0.13335871953771541,-0.6375779405796594,0.4522252662031214,0.3594885654902143,1.7679228589428144,0.26482435157858736,-0.46587943701626416,-0.36993101739024215,-0.37402903533595966,0.48904698280434167,1.691911750532839,0.40294687784162314,-0.03463777080456126,1.5154018031470928,0.12393963041796609,-0.6776696400328107,1.203116013710163,-1.02087900316601,-0.34552252573090375,-0.4656282461070604,-0.21682577286246804,-2.220446049250313e-16,-0.8075483489684435,-0.38781449394121503,0.359677170000643,0.3081799438142092,-1.1669518632932612,0.5978165536439882,-0.3430212085774127,-0.5089231731424179,-0.6167285049846994,-0.22795552297378138,-0.4338533995579886,-0.384148386891466,0.49048554587011606,-0.21671578568901628,0.8036420704340417,-0.15364183592659433,-0.8807815708411625,-0.0910579758580964,-0.29009235360103836,-0.16180727700775505,-0.36338945954410057,-0.13610474905153166,-0.4448740856376481,-0.5379632215587952,0.0,0.4916337480542791,0.8817532562290455,-0.6970897359376352,-0.10213278588699194,-0.6891425189615927,0.40147912448176865,-0.4688725148083862,-0.49582795397287716,-0.36172337563709855,-0.47861228718634374,-0.3322661434032525,-0.41760391105107747,-0.007921705167265139,-0.5564415701984697,0.4800912214902769,-0.19731618229433495,-0.7945461348230545,0.3311293421497733,-0.6609598898058686,-0.3401795899526694,-0.9632096018826631,-0.34130040508016457,-0.351710392624111,-0.2797735732680016,2.842170943040401e-14,-0.5732128808185082,-0.030633630137746618,0.9427845802607364,10
0.44235122363345963,1.6291644500757563,0.17207829710778075,0.06489933175242805,-0.6788629196893962,0.3208681382742277,-0.10906688662617516,-0.6210371797479617,0.47396469815588155,0.42007980399478073,1.7641488950173188,0.2402629743762941,-0.4622918239008304,-0.36859779572349566,-0.3678976663682716,0.48904698280434167,1.691911750532839,0.40294687784162314,-0.03463777080456126,1.5154018031470928,0.12393963041796609,-0.666308241432523,1.193116234629273,-0.9966287329212283,-0.5855410045586029,-0.4656282461070604,-0.22513196092934884,-2.220446049250313e-16,-1.901489797126394,-0.2520830121013787,1.2300669096372099,0.3913608304997833,-1.1167245304766762,0.6182376687665925,-0.3932639403540399,-0.5275658475544228,-0.6548658917155029,-0.37538364189981444,-0.4948751679697845,-0.49424286668455536,0.5622319411126413,-0.21671578568901628,0.8690014360142906,-0.15364183592659433,-0.8807815708411625,-0.0910579758580964,-0.29021249963073725,-0.17541711876762264,-0.359723455489762,-0.2515344531821927,-0.5018915670764709,-0.5379632215587952,0.0,0.6107982958437055,0.4133400764232891,0.06639031133243076,-0.10846738682370645,-0.6796702128537898,0.4209858070546372,-0.4932794943985831,-0.45319475393389785,-0.29420121239150726,-0.5316372848886444,-0.2605092093324337,0.01341965477125669,-0.007921705167265139,-0.5564415701984697,0.4800912214902769,-0.2041655493942408,-0.7778369820353318,0.352550743772334,-0.6557234995580993,-0.35277949994113666,-0.9508222344270373,-0.3821367777559542,-0.2839750662475093,-0.12833268814079102,2.842170943040401e-14,-0.13348288725693552,-0.15510269920969566,-0.006521567337050771,10
0.3900831961409222,1.500671884704267,0.17596793514755235,0.15336194953271998,-0.6885679508668985,0.35972507112478597,-0.11598494004352759,-0.5848361730870038,0.4987520057228554,0.432495866314118,1.7725952279728685,0.19214249470909553,-0.45937942914772745,-0.4125913276341425,-0.5308400545389469,0.48904698280434167,1.7297911466934106,0.40294687784162314,-0.03463777080456126,1.5154018031470928,0.004222991400098134,-0.6633509166032624,1.2131444536002705,-0.9529552234495006,-0.6823238001536784,-0.4656282461070604,-0.5117145879189205,-2.220446049250313e-16,-2.130127572452969,0.1639967125216417,1.8539734124923475,0.2930603726964047,-1.15488425610764,0.5729446810115286,-0.42925167782135376,-0.5363714999109824,-0.6753581351883008,-0.42882637213705194,-0.5159171202245363,-0.5939511004848913,0.5622319411126413,-0.21671578568901628,0.8690014360142906,-0.15364183592659433,-0.8807815708411625,-0.09191294173819643,-0.299383237732535,-0.16681093159770466,-0.3721019365981878,-0.4890496608294236,-0.6345191542754308,-0.6583639458173901,0.0,1.7069279390491743,1.0110984932309828,1.3679134022878838,-0.11480198776042094,-0.655340597049355,0.4467815926910888,-0.5227916956390533,-0.4225391108785584,-0.2681018263250542,-0.6341330878996604,-0.438516386275512,-0.15899178300098407,-0.007921705167265139,-0.5564415701984697,0.4800912214902769,-0.2144394288116344,-0.7412674337828632,0.37697543305068787,-0.6504232372135369,-0.3851423650448143,-0.933952587989983,-0.4362746439113149,-0.3852822062463107,-0.23824766391911348,2.842170943040401e-14,0.08800708826496377,-0.3718642364671482,-0.8342419658593134,10
0.45843179352837543,1.6887917976643194,0.1160569924931755,0.09598079470038252,-0.535228311975575,0.5395513211000764,-0.10214920216798211,-0.6078733269172758,0.5080472073302057,0.44093903280161034,1.785534322547155,0.15621903816906227,-0.4510957309396396,-0.41420281094263384,-0.6340881348397133,0.48904698280434167,1.7297911466934106,0.38786229784477233,-0.030557645061061945,1.5154018031470928,-0.10591690492907095,-0.6606172191498829,1.2479008823742954,-0.916044882939867,-0.6591013205683605,-0.4679400457362911,-0.49717344250127293,-2.220446049250313e-16,-2.111486185686842,-0.3367173657162276,0.18692891793534533,0.13409590952938738,-1.210982311833861,0.5800135278940483,-0.5866707787021259,-0.6249888839831803,-0.6594268863377547,-0.5336641288960717,-0.5159171202245363,-0.5939511004848913,0.5622319411126413,-0.21671578568901628,0.8690014360142906,-0.44091835116253836,-1.016560656683696,-0.0688288069443094,-0.314989224533929,-0.1579264084344374,-0.36978055675687327,-0.5464840589959007,-0.6345191542754308,-0.6583639458173901,0.0,-0.8515865303910993,-0.2289165459252023,1.5789821222938083,-0.11619719912543142,-0.6357383391870552,0.47635091563568177,-0.5353274659622144,-0.5024958497582606,-0.37014520652499217,-0.6341330878996604,-0.4730134728885535,-0.28829770335150895,-0.007921705167265139,-0.5099239927342682,0.5367536098470387,-0.22121078240040748,-0.7412674337828632,0.3861346533663982,-0.6492593582528983,-0.41161014932862006,-0.9146151741291069,-0.4362746439113149,-0.4078618274551662,-0.27954953158988805,2.842170943040401e-14,-0.6508657571144751,0.04309575698410912,-0.6737207055057093,10
0.4242574948346488,1.5485416302357338,0.15262691998713665,0.1862365790777768,-0.31589441019487524,0.6172651719957994,-0.11252608628445733,-0.5716719911550604,0.5483266208568032,0.5372883680456396,1.7282064340194494,0.1585582495397643,-0.7531673741966973,-0.49967705637832277,-0.634582872944444,0.7984014791333094,1.7297911466934106,0.38786229784477233,-0.030557645061061945,1.4067865872153886,-0.10591690492907095,-0.6523165907133626,1.0914764272719832,-0.918615133582259,-0.7249155244050708,-0.2967673899924644,-0.49717344250127293,-2.220446049250313e-16,-1.1596906138985275,-0.287126409663828,-0.23293729759361834,0.18535080685410707,-1.0090945231868036,0.6459894392800346,-0.5651893308925799,-0.565519937923977,-0.5909389714107937,-0.48561349783665164,-0.4948751679697845,-0.49424286668455536,0.5622319411126413,-0.08491701408228987,0.8690014360142906,-0.4119802368800245,-0.8381532423646706,0.004698440845648203,-0.3125387848314139,-0.20228887291636272,-0.34908738322628763,-0.49144276483725136,-0.5725436247916262,-0.466438048693177,0.0,-0.881145449009209,1.1419383919606045,0.6493651259908652,-0.11476983428830877,-0.6181620005403767,0.5027755927109937,-0.5359280375220175,-0.5076695481713005,-0.37020043111873163,-0.6859716267836822,-0.40310105533077417,-0.28829770335150895,-0.007921705167265139,-0.48998757165914114,0.5713803241549523,-0.22121078240040748,-0.7279692348992487,0.4258248116073957,-0.6504860395865003,-0.4340833863454347,-0.8947488465691883,-0.45019785262276946,-0.38557737846667406,-0.33484377036679974,2.842170943040401e-14,-1.2900325093959146,0.036014155175354244,0.37278862763942877,10
0.3920963550448172,1.7929298216185345,0.06392691937923478,-0.24587795681947444,-0.4731160551969045,0.5982885365687147,-0.1333474662833558,-0.5520010385648965,0.5823791992824133,0.5218931424156331,1.7465370633650046,0.14385468409393407,-0.7485162669303606,-0.41479733369360094,-0.5709632986271398,0.7984014791333094,1.7297911466934106,0.33973551467752305,-0.030557645061061945,1.49200770398963,-0.10591690492907095,-0.6569891229810161,1.1436904326563477,-0.9014808662604828,-0.6862008204736582,-0.2967673899924644,-0.45356276536978485,-2.220446049250313e-16,0.085949076181083,0.45502710141682257,-0.9679087403858511,0.10537335809719961,-0.9047260387180986,0.7051583122918196,-0.4664977075176917,-0.6048141330900296,-0.5729913568778878,-0.48561349783665164,-0.41070722105011204,-0.4838566206918022,0.3955119098602856,0.009362387563691574,0.8690014360142906,-0.4119802368800245,-0.8381532423646706,0.004698440845648203,-0.3096181330563853,-0.2256949190354754,-0.3307926602183728,-0.49144276483725136,-0.5056100675709735,-0.38895243987263856,0.0,-1.85651719360373,0.5819661421725204,-0.48229285627490087,-0.11476753861978041,-0.6006011225611186,0.5291941986447704,-0.5359537331192984,-0.5028103096947709,-0.32987750883704237,-0.6859716267836822,-0.40310105533077417,-0.1589914956519404,-0.007910197132533348,-0.4732875489182108,0.5934668891967906,-0.22121078240040748,-0.708098023674235,0.4593792283154241,-0.6504880704706828,-0.45593417984805906,-0.8730535112776289,-0.45019785262276946,-0.38557624955711084,-0.2660067123638822,2.842170943040401e-14,-1.2891909933719807,0.014761098351941952,0.5344509215052191,10
0.3337970846193428,1.6560387233557636,0.041363513134594805,-0.3654220473407729,-0.472145553669228,0.610939626853438,-0.1368066659416379,-0.5388368566329532,0.5544932846182432,0.495073552734607,1.7522878129589072,0.11578414764551032,-0.7171669801434103,-0.4133310688045273,-0.5400852814695773,0.7494637211228768,1.7297911466934106,0.3189048483272786,-0.030557645061061945,1.49200770398963,-0.10591690492907095,-0.6640718738348911,1.1589751469052838,-0.8690960542844295,-0.7171694122320234,-0.2967673899924644,-0.3663414111068082,-2.220446049250313e-16,-0.27282259019812977,0.22554105725270446,0.011461669799726975,-0.07288907577886423,-0.835255762402857,0.789199057936064,-0.3676640391006697,-0.6346939456923656,-0.6196947438248652,-0.4255501821739062,-0.5874598130509586,-0.6188781589349753,0.29227969202620113,0.009362387563691574,0.9050328864221789,-0.4119802368800245,-0.8381532423646706,0.004698440845648203,-0.3030580018498429,-0.2399038935334591,-0.30637455227655436,-0.18037710948244234,-0.6878180742953505,-0.6094884139555559,0.0,-0.6175257299065982,-0.22653349858410007,-1.8897405941840657,-0.1204264650352167,-0.5837331382091115,0.545539866745765,-0.5192915249461834,-0.5052973468937144,-0.3811486436068173,-0.5304563557357006,-0.439327199089872,-0.15940786441652505,-0.011447715128622075,-0.45999694857234075,0.6186499980277694,-0.22121078240040748,-0.6947998247906205,0.4593792283154241,-0.6455677618775356,-0.47648655653477223,-0.8597325562474787,-0.3954839175297358,-0.39712326339027176,-0.2799079432052235,2.842170943040401e-14,-0.1102292492297067,-0.3006737306030938,-0.04558911410050666,10
0.31168527179149014,1.5703781597437643,0.036696266179047504,-0.26440729275992086,-0.23825411307264363,0.43382433325652725,-0.1368066659416379,-0.5388368566329532,0.5947726774886996,0.47570441414632647,1.7672040612495736,0.08587605048019474,-0.687810276004052,-0.46999116853995015,-0.5600687243689298,0.7302386846780237,1.7757303751539548,0.31459601910836155,-0.030557645061061945,1.49200770398963,-0.12985957891849945,-0.6683799339493731,1.195788718957102,-0.8345754731807584,-0.6087714126108328,-0.3569120787070363,-0.4037256369684996,-2.220446049250313e-16,-0.02293202418611774,0.6067904766741726,0.8623451529962951,-0.24595173440525708,-0.6839214679387344,0.810667411381423,-0.37878833969204373,-0.6491075374416864,-0.6688457741365282,-0.3720392285451388,-0.5853556212730001,-0.6188781589349753,0.29227969202620113,0.1613638847169902,0.9737440196201915,-0.4119802368800245,-0.7750001933189847,0.004698440845648203,-0.3017404266159188,-0.26452888835518207,-0.3010509330152382,-0.21926497854413632,-0.5675855970547782,-0.6094884139555559,0.0,0.6425833974150066,0.6348895131679558,-1.544539970377534,-0.12467410570170569,-0.5742938109565369,0.5650301136316038,-0.5112635864940137,-0.49600514629721176,-0.3864856152291776,-0.6859716267836834,-0.5093512982030362,-0.24519276062788037,-0.011447715128622075,-0.45999694857234075,0.6280936244906806,-0.22121078240040748,-0.6947998247906205,0.47159139994595284,-0.6418531197535111,-0.4876901528612824,-0.8425571217928702,-0.3818708858234746,-0.39712326339027204,-0.33497676356286143,2.842170943040401e-14,0.8309677476966515,-1.3325509383861902,-0.6789633604584565,10
0.3458595704852167,1.5166296131837493,0.047589164843479595,-0.07253902507393904,-0.357626087190127,0.22688860832979976,-0.1437243734597785,-0.499344969039638,0.5761822949301402,0.4478921090705536,1.7303635631951206,0.07117282722444233,-0.7181149303596869,-0.4286816312110106,-0.5668856362326665,0.7302386846780237,1.7451053232404403,0.31459601910836155,-0.06522409725838807,1.49200770398963,-0.12985957891849945,-0.676163355996113,1.1004772574881903,-0.8171154801278242,-0.6707085961275635,-0.38697968576999986,-0.5428638564298452,-2.220446049250313e-16,0.5862115198001854,1.2759400773684262,2.147832480886402,-0.315761775664722,-0.6242357440559957,0.720081440160777,-0.41208542984936986,-0.6816087609351646,-0.5232839796898859,-0.3720392285451388,-0.4738331812398665,-0.6188781589349753,0.29227969202620113,0.22293410941681024,0.7818556289694444,-0.4119802368800245,-0.7750001933189847,0.004698440845648203,-0.3026551569991972,-0.2738627653213413,-0.32275778133443994,-0.38794116598131906,-0.5688251039889902,-0.47001431807858635,0.0,1.2863281653981755,0.16839450242700535,-1.4016894418946204,-0.13315545778363388,-0.5520231607564433,0.5788601530854973,-0.5347858372015679,-0.5086133319832536,-0.4740925688896788,-0.6859716267836834,-0.5093512982030362,-0.3745035659121506,-0.01852204365964818,-0.42344705001371435,0.6690162156897272,-0.23148463898680569,-0.654905893043072,0.47159139994595284,-0.634478775704268,-0.513804264622916,-0.8305005927069875,-0.4638095231075338,-0.46460014473762146,-0.3623774921750386,2.842170943040401e-14,1.741077353915523,0.7815396949723674,-0.17237717987134568,10
0.32374775765736397,1.6501599223272154,0.12850670245005205,-0.2871206612431512,-0.5789010079269175,0.19435722062160302,-0.17485544088825852,-0.5256730038022672,0.5668870933227897,0.423059984431879,1.7521085735955642,0.06599309601930535,-0.7470390026610748,-0.44955956600628616,-0.5983355336523786,0.7302386846780237,1.7451053232404403,0.31459601910836155,-0.09784839849504771,1.49200770398963,-0.15460154070017493,-0.6823297209014042,1.1566050673136328,-0.811377651416338,-0.7403998202842534,-0.44712437448457176,-0.5428638564298452,-2.220446049250313e-16,1.41529443336387,0.6752578129927532,2.004723435611826,-0.511851995328639,-0.7126228078472112,0.5975547494251515,-0.5466378437432086,-0.6408680566825523,-0.4784876016897675,-0.5489529855702292,-0.49066671546353474,-0.25535863027768274,0.29227969202620113,0.11807230520551353,0.7516897615960284,-0.6397692069794583,-0.7750001933189847,-0.0012863343228484902,-0.3014691951390023,-0.26000846680107853,-0.35382327716305817,-0.5387064930252731,-0.6208845373828312,-0.21371576732843142,0.0,1.364011416989932,0.5284448887911324,-0.14892039744685936,-0.14587067181664276,-0.5425839010373604,0.5826275521676664,-0.505289613041215,-0.5406570463246272,-0.4994631170069463,-0.6859716267836834,-0.5093548399014085,-0.503809486262676,-0.05035793697156848,-0.403586696615582,0.6752813481253013,-0.2520992926379872,-0.654905893043072,0.47159139994595284,-0.6230385633370332,-0.5247914056756586,-0.8270974053760096,-0.4501992138442666,-0.46460127364718384,-0.41744768927383674,2.842170943040401e-14,-2.151757813716662,1.1303267569204183,-0.1500917170224381,10
0.7398582342468982,1.3621021118353336,0.18919525402020468,0.2119385520274763,-0.483791603802821,0.15098205181606755,-0.2094453620758088,-0.5059267309043524,0.5606901889705166,0.5089786881460643,1.6599169726818117,0.09289402678237828,-0.4463717985631985,-0.3986646470685925,-0.5082977846942621,0.7302386846780237,1.5968096908098164,0.31459601910836155,0.2549216954710445,1.3558216045204627,-0.09234862688522558,-0.642513050434578,0.9222108691569075,-0.8416885430493277,-0.7403998202842534,-0.3152759989092758,-0.3704966316604915,-2.220446049250313e-16,2.2669956625492285,-1.0345674440012298,1.1711688369125213,-0.32219958877687394,-0.7162104760037292,0.46795921180700645,-0.3932051229506009,-0.6392907474054611,-0.48434150310453405,-0.40589309607197255,-0.49066671546353474,-0.4880111190889033,0.29227969202620113,0.11807230520551353,0.7114686188269594,-0.389355901920292,-0.7750001933189847,-0.0012863343228484902,-0.30066049293735136,-0.25940455251052863,-0.3841926788977104,-0.36520672201658033,-0.6072499204902315,-0.387760356587883,0.0,1.4171547817496872,0.5822022802324646,0.9982481860039389,-0.1613946739278989,-0.5331291851530903,0.5782251234206646,-0.4223601364410926,-0.5484477122237197,-0.4968055657214605,-0.6341382719609104,-0.5093548399014085,-0.503809486262676,-0.08573099454900178,-0.39029576399971927,0.6752813481253013,-0.25552414742040525,-0.654905893043072,0.47159139994595284,-0.6084443367915985,-0.5354720592850392,-0.8311991486773722,-0.32768873459540016,-0.39686602253121994,-0.41744768927383674,2.842170943040401e-14,-1.3130956736563189,0.3194552910887525,0.9725792413869626,10
0.8202652006108512,2.060833217115528,-0.013878589103341788,-0.7664924807838162,-0.18875840795524249,0.08591927639967413,-0.17129489276089677,-0.5124338306638304,0.5855178379814092,0.6291664155075924,1.7465377994609526,0.08103098117098317,-0.3174027668240009,0.05329441884405112,-0.4694518138244734,0.7302386846780237,1.5968096908098164,0.26790502198333244,0.33648662474052726,1.7585313781385992,-0.09234862688522558,-0.5853267628231541,1.1855848311881112,-0.8265048244928391,0.018378248597168505,-0.3152759989092758,-0.3580394760804128,-2.220446049250313e-16,0.6945653507253479,1.3676602466751901,0.6656100517844663,-0.48834469588715756,-0.620974242609494,0.31584808242074786,-0.2376977811415741,-0.5924618235244193,-0.582883585123198,-0.23989994840094975,-0.44858281095403113,-0.5627922944391553,-0.054064407221652136,0.11807230520551353,0.6511368840801274,-0.389355901920292,-0.7347401117802833,-0.16886006705635093,-0.27326845510768843,-0.27017783601623097,-0.4173833406547839,-0.36520672201658033,-0.45479020203574516,-0.6035279780006353,0.0,-0.4517650511279662,-0.2768027254035417,1.3909891097165943,-0.16843028641600077,-0.5277111306733082,0.5845224778699809,-0.4381068179924725,-0.560891067145988,-0.5087448456359528,-0.32461041641952765,-0.5101618749041702,-0.5032482935799752,-0.08573099454900178,-0.39029576399971927,0.6815772040304579,-0.25552414742040525,-0.654905893043072,0.47159139994595284,-0.6020079755972897,-0.5415612376964563,-0.8253515207308412,-0.35491207556492865,-0.4420217276989667,-0.40350157667067765,2.842170943040401e-14,-0.6747115786328236,-0.6648763466148839,0.17026361226699754,10
0.7916198843464314,0.42171238136084205,-0.3657545907963248,0.8628561367165744,-0.2644577179228589,-0.22578333621427135,-0.1180746786020997,-0.5319230096595535,0.6325873382694034,0.7477399632262279,1.500738064162468,-0.005393913596421723,-0.3217750487750467,1.1558977946048472,-0.05937067772009626,0.7407263697987497,0.6943445076218367,-0.0569489255302794,0.33648662474052726,1.7585313781385992,-0.09234862688522558,-0.5322802420774402,0.8140531594862601,-0.694972108809142,0.07547906729756453,0.1103414721738986,-0.22305222413226516,-2.220446049250313e-16,-0.5290445536207847,-1.1228477422389915,-1.4336390334883453,-0.021371098197426226,-0.6297803323176138,0.12474374243026012,0.06752411718755719,-0.5995613398764577,-0.5027081640319222,-0.07069888783525186,-0.44858281095403113,-0.5129381435052494,-0.054064407221652136,0.11807230520551353,0.3620997315183755,0.18361869018620075,-0.7347401117802833,-0.36464774387213705,-0.2257878271576605,-0.2694415006840664,-0.43031580814405196,-0.0804651813414601,-0.4882569704920047,-0.5606128625625789,0.0,0.5337139821807199,-0.2479738471962662,-1.850894287368267,-0.16460895327690697,-0.5262923690658107,0.5921980862672797,-0.406259139229893,-0.572257148107894,-0.41815058712063435,-0.32461041641952765,-0.5101618749041702,-0.5032482935799752,-0.08573099454900178,-0.3833153473878168,0.6815772040304579,-0.23697814176548104,-0.654905893043072,0.508852862782911,-0.6053556232124373,-0.5431798128743065,-0.8175411190778887,-0.35491207556492865,-0.4420217276989667,-0.40350157667067765,2.842170943040401e-14,-0.008410171756990426,-0.2663515240088085,1.6892223690487338,10
0.7453872166762049,0.7937538008120509,-0.15956871854878252,0.9800093514991391,2.1229215006307913,1.4495263668792606,-0.007387230581255833,-0.5253409186935819,0.7193430696748717,0.8464480146592097,1.3460519172618608,-0.04988033463915334,-0.4072503468997782,1.3159225479756231,-0.03654118105484859,0.7407263697987497,0.6943445076218367,-0.0569489255302794,0.33648662474052726,1.7585313781385992,-0.09234862688522558,-0.48878781424124945,0.5365944566727288,-0.633821842764522,-0.6832990015838574,1.6757519571768864,0.16580326739611043,-2.220446049250313e-16,-2.0817492663110535,-0.09647860351193818,-0.48502153585418273,0.41465147585083884,0.20384254928495762,0.47897155497601474,0.240247002143786,0.8048676717754709,0.22887135558323657,0.5988022488097164,-0.24657991761768192,-0.5129381435052494,-0.054064407221652136,0.11807230520551353,0.3620997315183755,0.2867435972910935,1.1455931694670116,0.7921240335404801,-0.16069878990961003,0.013489275400094126,-0.24617153505390288,0.5710563825209446,-0.391575185925862,-0.5606128625625789,0.0,-0.1858263983460603,2.2233168018845246,1.9141632647872644,-0.13679611992785756,-0.531626889118302,0.6212568169846302,-0.15284683602542606,-0.5862961874408648,-0.19002526721399216,-0.1660465717519587,-0.5801859740173335,-0.2877365106688082,-0.08573099454900178,-0.3833153473878168,0.6815772040304579,-0.12738966085770417,-0.6615546600332318,0.5943394279118394,-0.6276175633117975,-0.5373079913219322,-0.7859543756522351,-0.2539725103919512,-0.46434290387856936,-0.19435467760236527,2.842170943040401e-14,1.455911394401574,0.513969741857943,1.4009358985865192,10
-0.9049872786909112,1.0675342773841028,-1.2293976471059966,1.2758809782324423,1.9511422850114017,0.5133454785342413,-0.038315255172364865,-0.47926661103303775,0.6790535552951885,0.542874426393948,1.2213775063059302,-0.34148547966625104,0.6667204900575076,1.1995734720199769,0.9393897948019228,-0.32759290545795994,0.6943445076218367,-0.854269159746503,0.33648662474052726,1.7585313781385992,-0.09234862688522558,-0.3381051831283157,0.26794994509923625,-0.037246312304337385,-0.6832990015838574,0.8823499040958792,0.33609075536837996,-2.220446049250313e-16,-2.221474936972852,0.6980397070384096,-1.385574310997943,1.0621314523101346,1.0540991582667183,0.5713901900443703,0.32558540992999413,1.0401690989719552,0.2271111961753424,0.16416231142253904,-0.08245254523491911,0.1704785104710817,-0.054064407221652136,0.21235172261347243,0.3620997315183755,0.5471865913521173,1.1455931694670116,0.7921240335404801,-0.05593589611863071,0.23973305093642178,-0.225697170427992,0.18879601771266966,2.0613378771796453,-0.13980640836215968,0.0,-1.174051944797839,0.595837767293649,1.4263361268704513,-0.10894186575628484,-0.5221040274384368,0.6440243314786367,-0.11524239203458421,-0.5381009559272352,-0.1933065431784829,0.45755521544372335,-0.5121180729725937,0.02167145726440343,-0.08573099454900178,-0.3833153473878168,0.6815772040304579,-0.12738966085770417,-0.634623128841805,0.5943394279118394,-0.6511723801600766,-0.5476262903703248,-0.7623561183114482,0.0458938771954574,-0.44316087270850674,-0.07067155596150697,2.842170943040401e-14,0.06497829230681587,0.9689170261479959,0.16087232918007052,10
-0.1772941467181695,1.0902101441952143,-0.23037255986759153,0.10673976490384034,-1.989043337108274,0.5549133677631792,-0.16283883308786118,-0.40686424666978055,0.6914470541576159,0.316281034784435,1.1631961145264964,-0.43158618024759393,0.7053617221270478,1.1598504738337838,0.7330636498132023,-0.32759290545795994,0.6943445076218367,-0.854269159746503,0.33648662474052726,1.7585313781385992,-0.3006570825488494,-0.3708325403717061,0.15627030604817535,0.08227440864814556,1.0829890001429998,0.13347368034917076,-0.05276473615999562,-2.220446049250313e-16,-1.0613418981776137,1.160257606870426,-1.729903275826036,1.0185524140736737,0.5482381566006831,0.6884188892368672,0.3391785058175745,1.6588072357641115,0.20662724431893237,0.16416231142253904,3.181157279844207,0.3200408611715856,-0.054064407221652136,-1.2797642019400262,0.3620997315183755,0.5471865913521173,1.1455931694670116,0.7921240335404801,-0.058488818322601936,0.46791308215228344,-0.19983583905455526,0.29409241761859073,2.0613378771796453,-0.0849704210142624,0.0,-1.019732480981967,-0.253711731185611,0.8847219230112077,-0.099434114630281,-0.5017758295601658,0.6705653203891251,-0.18327052841041572,-0.3862727345288172,-0.2694465282105758,0.059806733555752584,-0.4412833971582955,-0.07264540675788429,-0.046716775916777725,-0.3833153473878168,0.7068012984735232,-0.12738966085770417,-0.5614836777217771,0.5943394279118394,-0.6603150244273751,-0.5680215442820472,-0.7346791716567921,0.01261663973867597,-0.3517091884539105,-0.22474963467218143,2.842170943040401e-14,0.396260732477104,1.5196057343238893,-0.7520638256377734,10
1.1574796092366972,1.7612276388923203,-1.449586853681074,-1.6744298635212742,-0.151879238598373,2.5564970184842224,-0.18004372152686393,-0.3542189058455097,0.7503272815941189,0.39959386058741014,1.0990843657418432,-0.7398994401952985,0.8486628309813282,0.7874070308487053,1.107136419913808,-0.32759290545795994,0.6943445076218367,-1.0575491010089209,0.6785573510967473,1.4604687897363862,-0.4501026507392821,-0.29274667909332225,-0.04464234784049923,0.7889101155825716,1.0829890001429998,0.13347368034917076,2.0633695813930557,-2.220446049250313e-16,-0.8188086793291922,0.6155155677857104,-0.4834080841947602,0.6424355499873364,0.5606319198089873,1.4042051825876591,0.7902509421134128,1.6549280795151466,0.8921134597233416,0.16416231142253904,3.261116808732796,1.1321176032199374,-0.8381131148218227,-1.2797642019400262,0.3620997315183755,0.5471865913521173,1.1455931694670116,1.8394599261599556,0.07936100597549814,0.4672514105506527,0.38519052129596565,0.29409241761859073,2.0613378771796453,0.5313382192269217,0.0,-1.6126636055524568,-0.2750974798791141,0.7893747439345057,-0.10121887930504041,-0.46930920686385996,0.7040182913594036,-0.17077723850814114,-0.25884600920995177,-0.32224953661617384,0.19092719477355885,-0.08434678501562008,-0.24505224694542282,-0.05566368336983799,-0.3833153473878168,0.7546223998646114,-0.12738966085770417,-0.5083023850143251,0.6248703658371265,-0.6586260392230929,-0.5992910489922029,-0.696941956724409,0.01261663973867597,-0.10334878358719686,-0.30726379005558296,2.842170943040401e-14,0.328392508565479,0.5711986135141868,-0.3108793065218804,10
2.620902041240264,1.7486289795786527,-1.7320230165796415,-2.3157839256693333,1.9521127865390782,0.4003892983573351,-0.1212411322273979,-0.30156283632025127,0.7596224832014691,0.8515397495630029,1.3830274889227756,-1.0333007409398933,1.83228031395373,0.6175075557879659,1.4557589666541557,-0.32759290545795994,1.05138203884747,-1.3182957901743015,2.163054933277101,1.4604687897363862,-0.4501026507392821,0.49412202667710087,0.4294123370402925,1.5876943947896052,1.7875759976807384,1.1928890215043233,2.6510674747088765,-2.220446049250313e-16,0.4849768793949031,0.32171173373121253,0.47897410841537547,-0.6743294109609596,1.305541592284993,1.5856225820334817,1.2959170222754584,1.785974541959351,0.6573177060682459,1.5456183748502343,-0.3496855215886482,-0.3072899623426634,-1.3919539777513665,-1.2797642019400262,0.9427402137745393,0.5471865913521173,1.1455931694670116,1.8394599261599556,0.3615662526699642,0.7092859534811367,0.395599565530178,2.076914773493385,1.9187941938907216,0.5313382192269217,0.0,-0.33851595922900984,-1.234752129132654,1.3750417544409932,-0.1018648371498984,-0.42203795959909696,0.7298038466192348,-0.16971153083118273,-0.1921315578839202,-0.37683022947854455,0.143470915666924,0.12815393684212567,-0.2020921281399104,-0.05566368336983799,-0.3766698810798854,0.8018305848263109,-0.12738966085770417,-0.4551102543831622,0.6340295861528369,-0.6580674804784636,-0.6434542350021376,-0.6663736304582955,0.01261663973867597,-0.0808082979098537,-0.22465849440738578,2.842170943040401e-14,0.36703387498272527,-0.07923827445925076,-0.05679928645485027,10
0.31520521220627584,1.6982395021844525,-0.8372564821082247,-3.4365097975650056,0.12271274795280186,-1.293897025357888,-0.24952758624925556,-0.3804398071788504,0.6449707362787451,0.7452581747393612,1.5765758213990713,-1.1788317856268404,1.8502411448472122,0.3699528107104034,1.0426922264333118,-0.32759290545795994,1.3141213478127238,-1.3182957901743015,2.163054933277101,1.4604687897363862,-0.5227315950351771,0.44911780778770266,0.8077383719589043,1.8751467150535222,1.7875759976807384,1.1304325331605212,1.0312587286954724,-2.220446049250313e-16,0.7888095811971698,-0.52747503807566,0.8985169965483601,-2.5038909689562,0.633343327514396,0.7907862862266511,1.6560834368242574,1.5578648512545026,1.3605964266611605,2.6289420820319727,3.24217897930567,-0.402843697745898,-2.3597560400307698,-1.2797642019400262,-0.6283460550386505,0.5471865913521173,1.0066564124182582,1.8394599261599556,1.0365054396297104,0.42092027236622365,0.3546396560860562,1.8447840572153709,1.9175546869565094,-0.4998164587909037,0.0,0.4221935458723582,-0.5711746332072374,0.3208061018154429,-0.1512615695229261,-0.39230340882124665,0.714707772901887,-0.15953500281991662,-0.3151277424810467,-0.29450307252716257,-0.11438221732596535,-0.3666480067625351,0.01341965477125669,-0.12672070411877184,-0.3301519491943583,0.7672035347427733,-0.1580106146607022,-0.4551102543831622,0.6340295861528369,-0.6147206768699889,-0.6731053831039266,-0.6838407959890614,-0.24601598924382087,-0.32916870277656735,-0.16958967404974784,2.842170943040401e-14,0.3733493731727037,-0.4397932280167725,0.020586048269563378,10
0.5765288821114667,0.07990602430894529,-0.7119897409281477,-1.003787505022363,-1.5261129158512743,-0.28542418406851167,-0.23539905622083113,-0.46936149691191403,0.5086706509863035,1.1112843428743393,1.3652360498591447,-1.067720272088728,1.3036721589941438,1.5348579630329213,1.090820560499556,0.3050972810844659,0.3663227027941593,-1.3182957901743015,2.163054933277101,1.4604687897363862,-0.5227315950351771,0.31927118833908447,0.6465409880397242,1.5844408544709474,0.839101429462233,1.1304325331605212,1.3656030003297304,-2.220446049250313e-16,1.2641333501024354,-1.4740268942843884,0.0743044204669303,-3.4482531875192266,-0.5352371564250814,0.5593633415865548,0.9700726342417052,1.4140377195157496,1.440383408512688,0.6348402310504384,2.257414745009094,0.9140058247648333,-2.3597560400307698,-1.2797642019400262,-0.6283460550386505,-0.48195784348721593,1.0066564124182582,1.8394599261599556,0.9879600386985083,0.31642542712224625,0.3375619679196767,0.7332263414106087,1.3374639795596532,0.404902547704627,0.0,0.08916816776737745,0.6100088584393643,0.7854842584959307,-0.19146674618004736,-0.3902708217988551,0.6801235025668022,-0.3019161775647922,-0.3324407206529902,0.03166365870740301,0.09180621563684566,-0.3666480067625351,0.18597131887691135,-0.12672070411877184,-0.32015146416483753,0.6287270232331246,-0.24011315706184966,-0.4551102543831622,0.6340295861528369,-0.578947464756287,-0.675208095995196,-0.717636093121783,-0.19187540064546593,-0.32916870277656735,-0.01814732039863312,2.842170943040401e-14,0.07372021375800288,-0.2459645096522056,-1.3110994403769942,10
-0.7280886591787152,0.04379388083457491,0.9997362260712163,0.77260035233918,-1.1058846731172027,-0.8538197181332045,-0.1906912141267631,-0.5647367087197694,0.4094908702854555,0.9752040150590026,1.141316398567565,-0.8035587712878299,1.6071060334920022,2.150385311231564,2.483911525114673,-0.17378903448441702,0.33166690943552235,-1.3182957901743015,2.163054933277101,1.4604687897363862,0.7390855723351925,0.4115279460147737,0.4784155829704907,1.3793598807162224,0.839101429462233,3.913128692605767,1.3656030003297304,-2.220446049250313e-16,0.6181174963577466,-0.5420052192331836,1.5382691950242324,-3.172417649929863,-0.23843927437547294,0.15121919914657667,1.2584600279076776,1.1242713512271534,1.590275217242874,0.6348402310504384,1.3462973608417321,0.9140058247648333,-2.3597560400307698,-0.8208736135857531,-0.6283460550386505,0.10417042752543745,1.0066564124182582,1.8394599261599556,1.0279412610001317,0.14811081579503027,0.3736575589587262,0.7332263414106087,0.8007560960927527,0.9508780788338062,0.0,0.6596031700833088,0.9853985544025422,1.3834731534403004,-0.19714864339348256,-0.4226671691434536,0.6228921217235349,-0.31401304453724194,-0.12753072624796838,0.3444213377518727,-0.06776990339097118,0.19783189396756287,0.9618128753099812,-0.12672070411877184,-0.4164449915496209,0.5279635496499792,-0.24011315706184966,-0.4551102543831622,0.6340295861528369,-0.5735614127766108,-0.6410460685836211,-0.7685024077443177,-0.25958201343437476,-0.1147856158470247,0.5874835022623796,2.842170943040401e-14,0.611512452951613,-0.7762802266718307,-0.5590303994772965,10
-0.4506803024892344,-0.09729734385058182,0.773321367787254,2.179036609492433,-1.1806134815571427,-1.593908662648835,-0.15643907504958293,-0.5646724242741796,0.44042466056383944,0.5778890037137797,0.743615903435779,-0.3261971113777454,1.7767806647850766,2.22800414959657,2.763402684253568,-0.17378903448441702,0.1962656882126368,-1.3182957901743015,2.163054933277101,1.4479350144051681,0.7390855723351925,0.3220378207513801,-0.007020895310490609,0.5403455808217233,1.195256091617258,3.8738044124372375,3.6956397360270246,-2.220446049250313e-16,1.4157068374277941,0.6333085646991536,0.2180945261982537,-1.5761030215775103,-0.5841598758382665,-1.0512539907453096,2.1249311425810213,1.2370415525381275,0.4694161974420423,2.6550832530994137,0.18898895257539283,0.6440925869889396,-2.3597560400307698,-0.8208736135857531,-0.9065423417196459,1.3421954244243486,1.0066564124182582,-0.20049388866683143,1.167174815760194,0.23052457232990875,0.012880157644335864,2.5112624892697473,0.8961983737246835,0.6267051163810792,0.0,0.31802090363854635,1.426984965332463,0.5656578337335497,-0.1923332857816482,-0.4658534550502966,0.5599881815263865,-0.2980701109476808,-0.07002552968849655,0.30724037646133684,-0.06776990339097118,0.3746896717317525,0.7465812577165992,-0.12672070411877184,-0.4164449915496209,0.5279635496499792,-0.24011315706184966,-0.4551102543831622,0.6340295861528369,-0.5780662221748467,-0.5974879473525152,-0.8301653214147954,-0.16669035274604885,0.12221254005164582,0.4225878175606628,2.842170943040401e-14,0.20304111543496722,0.40721468493984775,0.6699507576782475,10
1.1333546375049492,1.2212224414294373,0.5780283942041438,1.8150248381372305,2.0093725356793666,-0.3884402303390745,-0.1391441144558078,-0.5383440604102931,0.5240820740580894,0.21037274536025233,0.6307576726854315,0.16987823949795522,0.6815888143725348,1.823203869294847,1.8952316432988678,-0.17378903448441702,0.1962656882126368,-0.4922421820065966,0.6540849489914189,1.3978050463671206,0.7390855723351925,-0.38819432833319123,-0.27543227167089596,-0.4924232353585831,1.195256091617258,2.5599489932370587,3.3612954643927657,-2.220446049250313e-16,0.03607345377467301,0.8117608562675753,-0.3521588343445241,0.1351018125035943,-0.5649169323396096,-1.2797970375044236,2.179118616797366,1.2704100474778734,0.10026253796745281,1.9791662906650946,0.18898895257539283,0.40728556574687974,-2.3597560400307698,-0.8208736135857531,-0.9065423417196459,1.3421954244243486,1.0532318105019018,-0.849361204837805,1.0514206042085752,0.24493791532861878,0.011214707489191797,2.2414404216264665,0.8961983737246835,0.49080727035837657,0.0,-0.950982623339353,1.4511440693021824,-0.22217549923472515,-0.19598550153633373,-0.5144423392717341,0.5121782605857069,-0.32925398959271657,-0.24946902011164926,-0.03440948899433595,-0.06776990339097118,-0.3669901348254369,0.31625911091037967,-0.12672070411877184,-0.4164449915496209,0.5279635496499792,-0.2578383884337113,-0.5347902262368998,0.5210551016816347,-0.574852079555847,-0.5518221182138956,-0.8815588642188221,-0.16669035274604885,-0.18281378136422635,-0.11456445049551156,2.842170943040401e-14,-0.10287968843834892,1.1972605572689239,0.8463185086315616,10
1.9816602774683076,2.6086057245388923,-1.2472922129341966,-1.196253491643028,5.813748493933635,0.2585163192362141,-0.056465970416320045,-0.47905234417446074,0.6789728724073508,0.622090266940735,0.8255643611848663,0.08182451996101509,1.3883711367905751,2.9118159235952965,2.279325223520485,-0.17378903448441702,0.1962656882126368,-0.8707895257855741,1.5146072725090713,2.3034828185838805,0.7390855723351925,0.07129990757314461,0.4187709401149977,-0.25348788973445024,2.267612955336137,2.5599489932370587,3.3612954643927657,-2.220446049250313e-16,0.25793359747013656,1.364471976790603,-0.5348693210054261,1.063137371511593,1.347635619024821,-0.8300252392942822,1.2494469371323058,3.7181171520966876,0.30438665180557317,1.9791662906650946,0.18898895257539283,0.40728556574687974,-0.4251842350287009,-0.8208736135857531,-0.9065423417196459,1.3421954244243486,4.147732351910374,-0.3347238820374502,0.3979540771614559,2.3819873393822033,-0.13056689536266958,2.2414404216264665,3.30580600719738,0.04615907233827546,0.0,-0.10421573532282775,1.3953525219124707,-0.6183945173190429,-0.1566008523212334,-0.5346782053598319,0.5190800038833221,-0.22420732266043217,-0.4116369073998435,0.047052230245598216,-0.22447163325723032,-0.3669901348254369,0.31625911091037967,-0.11227229576680856,-0.4164449915496209,0.5279635496499792,-0.17598111941567768,-0.6246171764606716,0.5545598140227207,-0.6108216775834279,-0.5324585542614807,-0.8738569023996904,-0.27456860837954794,-0.21605610391535296,-0.11456445049551156,2.842170943040401e-14,0.6171359949104621,0.3914505089957757,1.1619284685321456,10
-2.6076256846611905,0.9340039682406365,-0.8660455400617496,-0.5925558203105452,-1.5299949378627178,0.27207107151732607,-0.19159198179438178,-0.4263641324264073,0.5798334124942804,-0.16459294695959154,1.0083303602145728,0.04874158325541678,2.6810554698409144,2.6989539420511415,2.376781208875961,-1.8079457676146777,0.1962656882126368,-0.8707895257855741,1.5146072725090713,2.3034828185838805,0.7390855723351925,1.1007681789471233,0.5365391262502426,-0.17509098661252429,2.8018568412690423,2.5599489932370587,3.772479418466521,-2.220446049250313e-16,-0.2589843646294344,0.9456796195273175,-0.45691193484705006,1.23349181952475,1.3463310109650874,-0.6685053422439093,1.136187927781652,3.71915639863444,0.4553330525843261,1.9037458591520344,0.19740575416239334,0.8246838709909888,-0.4251842350287009,-0.8247217585402333,-0.9065423417196459,1.3421954244243486,4.147732351910374,-0.3218993518125599,0.3576807772767618,2.3827177389237106,-0.1306483606898598,1.829827159616982,3.30580600719738,0.7637205148486155,0.0,-0.1419345969051155,1.394789795114756,-0.6485885012188247,-0.1476641910797856,-0.5258548961095225,0.5335245996704754,-0.2877926818179434,-0.34106514250306397,0.07242628531245322,-0.22447163325723032,-0.3669901348254369,0.5306485084561452,-0.06747340311875498,-0.4164449915496209,0.5279635496499792,-0.17598111941567768,-0.5811820805803819,0.5545598140227207,-0.61977144525094,-0.5411798702431839,-0.8612017305484414,-0.27456860837954794,-0.21605610391535296,0.1331590112258679,2.842170943040401e-14,1.454540138397157,0.8844027450586075,0.4457379207670649,10
-0.4607337463405873,0.14457111566948552,-0.708877711804152,2.504794261304324,-3.3661885189442047,1.1350563449215998,-0.2370655063838575,-0.4854737459665415,0.4930272594479489,-0.09853973953106016,1.0298953951557255,-0.3181772025282513,2.6449807049471317,2.6348611380289912,2.0206881939256323,-1.8079457676146777,0.1962656882126368,-0.8707895257855741,1.5146072725090713,2.3034828185838805,0.5068344426821402,1.0454981651115123,0.5346526445660112,0.22893994154509495,2.286974271535299,2.2823767070167613,3.251231029685747,-2.220446049250313e-16,-0.4084231644977011,0.9769726600109385,0.55929013909053,1.9510604023548896,0.5867241344403256,-0.09227970851544205,1.428969930474227,4.398509221757473,0.8055340801255302,0.6697861738265296,4.016523587629229,0.8246838709909888,-0.4251842350287009,-2.644891516377427,-0.9065423417196459,1.6289457935384943,4.147732351910374,0.49459515084465566,0.7267568820529211,3.008602629561383,-0.07866570368584655,2.194176693438445,3.7520296610773314,0.16767736857284649,0.0,-0.5384678701621789,0.9659417555458066,-0.7548794696908793,-0.15712456581696108,-0.5095896751864303,0.550480790652964,-0.22068597051581526,-0.3724011647481457,-0.03473000530298825,-0.21097164655184514,-0.08204468107269558,0.14244512245495325,-0.11397647535273582,-0.4163800881443809,0.5593912876175007,-0.17598111941567768,-0.5811820805803819,0.5545598140227207,-0.6102919172159992,-0.559444818089198,-0.8495584764535263,-0.2710238061042847,-0.30636977206997185,-0.10057345613053444,2.842170943040401e-14,0.5873379433437818,0.08004405532434146,0.7160704892208922,10
0.821776099011116,1.2430572509839777,-1.3453283009140857,2.1814274852311666,-1.0049522598270477,1.1070432079737738,-0.2164802371869853,-0.3965734916953691,0.604550117370361,0.21583573141064652,1.3167140771575963,-0.7731497078488593,2.693946016476778,2.061980837392829,1.6038044176392003,-1.8079457676146777,0.4283799452643761,-0.9612970057666788,1.5146072725090713,2.3034828185838805,0.30650742319344665,1.0571820905187548,0.7529935790149325,0.9964052524476468,2.286974271535299,0.16816962396491794,0.8339729397254763,-2.220446049250313e-16,-1.0594899747240332,0.8195608286914655,1.7676638147028263,1.9520508326448744,0.6457575569650306,0.6902515573740583,1.429505039579251,4.372815935242224,0.22779196984573125,0.6697861738265296,4.397383264744384,0.8558427110704626,-0.4251842350287009,-2.644891516377427,0.21127043583775257,1.6289457935384943,4.147732351910374,0.49459515084465566,0.7274315422076322,2.985137269364345,-0.19316484557088068,2.1965697876441332,3.7520296610773314,0.4157058476384918,0.0,-0.5385033710755368,0.9394684200243923,-0.20800643900657342,-0.16937298764357037,-0.47509479661568244,0.5837949261883919,-0.19095514830491622,-0.3672927460481671,-0.14901176522928597,-0.05629446540608299,-0.08400442083949228,0.14244512245495325,-0.11397647535273582,-0.38979822291265526,0.6128338395732386,-0.17598111941567768,-0.5510881585000166,0.5545598140227207,-0.5985081775879993,-0.5955087540056152,-0.8218485190765782,-0.17308074318744365,-0.30699443536140797,-0.12873598151794408,2.842170943040401e-14,1.102153635848803,-0.09117341914643881,0.4092375953502039,10
0.7534275016236628,1.681444156355379,-1.023990977235123,0.7140237498444236,0.2799343770540934,2.168831381585816,-0.20640735235785368,-0.3109215765340287,0.7191615228491661,0.12197021890634215,1.4151956179471752,-1.1171776883892404,2.6086120276234586,2.1334808869391635,0.0781118343066026,-1.8079457676146777,0.4283799452643761,-0.9612970057666788,1.5146072725090713,2.3034828185838805,-1.0135711226367257,0.9739890090811091,0.9813473029614709,1.5472913519043674,1.6869241102325956,1.3756254126886245,0.41448279758484136,-2.220446049250313e-16,-0.9772643810015954,0.3154870390778651,0.20221940944312386,1.4959565198016298,0.06455555607411782,1.431155167493395,1.3416709587782603,4.208079763285906,0.4495136144166414,2.090556409458092,2.0636970615498007,1.2568826661133339,-0.4251842350287009,-2.644891516377427,0.8111835304129862,1.6289457935384943,4.147732351910374,1.4726786250746735,0.5454192333056646,2.73107376381044,0.21571444625450661,2.1965697876441332,1.5432226383421928,0.43477921925686613,0.0,0.030065537875900224,1.518855475431671,0.7905029990074933,-0.18309471590330034,-0.4284263803133263,0.6233920936458676,-0.1937374726345315,-0.28843494839878137,-0.05228601490785598,-0.5157744030651191,-0.08400442083949228,0.4021845208041936,-0.11397647535273582,-0.336418849223944,0.6128338395732386,-0.17598111941567768,-0.46456427053899346,0.5941605369695557,-0.5855806961643873,-0.6397499179252323,-0.7809153125265225,-0.3794794918969539,-0.2268313951713579,-0.04577209068892388,2.842170943040401e-14,2.0453447307845734,0.9338905088662848,-0.34629915351696994,10
0.13428439177566392,1.7528291060010386,-0.5213656077614781,-1.0928478515303903,0.3808667903442486,3.5803319064367023,-0.22015338703778617,-0.06411709097149744,0.7873369312368782,-0.3344459407248979,1.2320704040948354,-0.9612875234820972,1.9494633775658594,1.3085772511541556,0.2319684402533775,-1.8079457676146777,0.4283799452643761,-0.9612970057666788,0.33801928200548553,1.4521135098807767,-0.8212255393229628,0.5108704200092543,0.31990950843389837,1.1577064968970656,1.555295702559175,1.3756254126886245,0.23796885834277423,-2.220446049250313e-16,-1.5332836047164589,-0.9155541362080348,-0.3645123972846258,1.5387927393774155,-1.761240700925181,2.393565710523274,1.304719918716982,1.3889789381831952,1.211719055766639,2.090556409458092,2.0636970615498007,1.3212775614370944,-0.3358883650377128,-2.644891516377427,0.8237526486829857,1.6289457935384943,-0.2714038106680913,2.80813874769328,0.5307212086132059,0.6030531581968845,1.35689476385225,2.1965697876441332,1.5432226383421928,0.697038225493084,0.0,0.07396331644658306,-0.9142592079683153,0.9169035144327533,-0.21648701637042733,-0.343279253235358,0.6453877975010696,-0.5064519282508975,0.17307756378846245,0.12139746799343802,-0.5868509932510539,0.2707420050288678,0.9182866788880231,-0.11397647535273582,-0.336418849223944,0.6128338395732386,-0.30976552390624085,-0.2152472107059998,0.6613385941988685,-0.5557986586770971,-0.6977761728135665,-0.7531795394924434,-0.4233276125096503,-0.11375665241081746,0.13280069139327652,2.842170943040401e-14,-0.0022933509498266193,1.5191224092550268,0.1694838972796988,10
0.31319205330238087,1.313602863326556,-0.7789023507462922,-3.5799627042319533,-0.04124177822997776,3.585753804388068,-0.2514867593853184,-0.05411555018198889,0.7811097656376305,0.3871767811416438,1.313299696102708,-0.9425738325164814,0.21303365281523223,1.278036303224948,0.24479060353243595,0.05866173665042084,0.4283799452643761,-0.9612970057666788,0.33801928200548553,1.4521135098807767,-0.8212255393229628,-0.5399191947464084,0.46108900276402226,1.1125105591421323,0.4093864512974505,0.524395207816598,0.23796885834277423,-2.220446049250313e-16,-0.7168615763789307,-1.5201437452417943,-0.6014955338322382,0.30124692367069017,-1.2609242768334306,3.3536199683993257,2.4351660348636632,1.428464680574333,1.1542389993407778,2.6813609604114825,0.19306577889653156,1.778273576299071,-2.483634699740315,-2.644891516377427,1.5980097739791397,1.6289457935384943,-0.2714038106680913,2.813268556981677,1.3143888645376958,0.4615077905371691,2.500891396660419,2.697326034264723,0.87264766074212,2.522122402396955,0.0,-0.794048692580574,-1.759761486028474,0.15290865539019138,-0.22870557568921365,-0.2668916792890799,0.6862428107279257,-0.5005233093974136,0.32376458916495365,0.1811782771061688,-0.5318007556200877,1.2274624034042185,0.3152772392274367,-0.12872423409995762,-0.336418849223944,0.6128338395732386,-0.3244337991548574,-0.20514384999212718,0.6613385941988685,-0.5434189305809183,-0.7456635799784276,-0.7060478333855703,-0.39641308732381775,0.6306616664940252,0.29823394762662425,2.842170943040401e-14,-0.664038543597667,0.14740571296240973,-0.919799617863952,10
-0.3019288556272021,0.31589568280046443,-0.822473945404021,-3.744933551305816,1.4794773341045762,-0.2863278312595071,-0.2826178498737459,-0.03107839635171683,0.8337829878687745,0.42641141601557814,1.3499609547938183,-0.9669682209608897,0.1006688720829467,1.0499147980947408,0.21168015807511822,0.19673407994287453,0.592795242294945,-0.9612970057666788,0.33801928200548553,1.4521135098807767,-0.8212255393229628,-0.5633815737909426,0.4667252755763039,1.169545134929132,0.4093864512974505,0.524395207816598,0.051068994236743104,-2.220446049250313e-16,-0.4001611770699806,-1.3643312759850668,-0.3757215625082224,-2.2877290023836774,0.36752984012638207,2.941810498263928,2.540914625486495,0.46111535327433456,1.8304703339646582,3.953611037652381,-0.0257707176138186,2.582171058162459,-2.6260951622118434,-0.30426094548614024,0.3059577303191814,1.3443000089115424,0.6222121094638937,2.813268556981677,1.7843892765389435,-0.09501993892536566,2.391775397229159,3.7179833301621077,-0.22927682660295856,2.5590770818800905,0.0,0.28529114235508807,0.07447862487554768,-0.5363223607462603,-0.2379982725390499,-0.17364711094104898,0.7554093053227715,-0.4243111717389669,0.1966394402815139,-0.050492835250458994,-0.5318007556200877,-0.29546718896051016,0.09962522998285421,-0.16056015099391632,-0.24666262318880278,0.7261374834084359,-0.3244337991548574,-0.18187216817162555,0.7071051825374256,-0.5334848886823728,-0.8070471788976417,-0.6286599010628539,-0.33966094990877294,0.3711596768484846,-0.18335662673661104,2.842170943040401e-14,-1.114919153750581,-0.7931886243697499,-1.2842351579504856,10
-1.9181290523005916,-0.46933704334830073,0.1960025189550283,-0.6248327309209186,-4.002839158875947,-2.0330823226825236,-0.31374891730222587,-0.13639088644357483,0.796601871597254,-0.2505147020530642,0.9835305516298481,-0.6359728917172547,1.2132311982081636,2.302147172520404,0.7140693087006735,-1.2084653908163125,-0.1607701924227241,-0.6646365413464592,0.2686863776108333,1.4521135098807767,-0.08536589181676306,-0.032031408205982374,0.3086332806422539,0.4815018943313364,0.4016403391244031,3.078090559726999,0.2005888855215677,-2.220446049250313e-16,-1.5058622991141573,-0.7714918887164798,1.6507571396258882,-3.450234052156009,-0.6399521883474703,2.0320399713311468,1.7167566108800858,2.2133680077282487,3.130180570404238,2.7107783214420684,-0.0257707176138186,2.5946345873875005,-2.6260951622118434,-3.275986327431571,-1.313781482616667,0.052607978283191185,0.6222121094638937,2.813268556981677,1.4946112962982874,0.8357705701014084,2.647929627003272,2.377884539387864,-0.22927682660295856,4.397199683138636,0.0,0.013660488425284925,-1.9273609462200358,-0.6745128435647576,-0.2578411233793204,-0.12025612721083566,0.79439191225421,-0.35122401444274803,-0.0769101956685134,-0.33933491545089245,-0.26821577890417303,-0.29546718896051016,-0.5042304526119624,-0.19239604430583662,-0.16018601273824162,0.8425789924204842,-0.3244337991548574,-0.18187216817162555,0.7071051825374256,-0.512120065963065,-0.8429577974267082,-0.58209161610944,-0.2316053724882204,-0.2275295128450164,-0.41744768927383674,2.842170943040401e-14,-0.39255279361610446,-1.7594609263553933,-0.8941826515651199,10
0.9745497467915643,0.3662851601946647,-2.0245712823050797,4.094132972744151,-1.3630682457824486,-2.1071815848142648,-0.2398037367848538,-0.25873656060836564,0.8060281983894466,-0.19588382442269422,0.7021034043992461,-0.8508439649755253,1.3204402167308258,2.0325695402761133,1.6966547569796973,-1.2084653908163125,-0.1607701924227241,-1.5883780307986262,0.4929930652352862,1.4521135098807767,-0.08536589181676306,0.01152761066963609,-0.13063103353932867,1.2051594043203009,0.4016403391244031,2.064939634922391,0.2005888855215677,-2.220446049250313e-16,-1.2409871948198823,0.12507593914058138,-0.597227767565688,-2.050009647524385,-1.1921063125635551,0.7931753044144266,3.2396665898622756,2.212381870738895,3.724849452620359,3.953611037652381,2.143788113198002,3.5231673615013084,-2.6260951622118434,-3.275986327431571,-1.3824926158146797,3.0279719088665256,0.6222121094638937,2.813268556981677,2.54497772043759,0.9417143539679561,2.6199409296863085,2.377884539387864,1.4589359434263036,6.701502570976231,0.0,1.380965255551184,-1.1542896331843897,0.3564053232570053,-0.26465399956931485,-0.10954745845278543,0.8120240837574547,-0.3923103540305705,-0.1830751660899166,-0.4666768187723023,-0.27124741792367035,-0.29546718896051016,-0.5019853945321161,-0.19239604430583662,-0.10749853593098901,0.9055164185937237,-0.33804335548680703,-0.18187216817162555,0.7071051825374256,-0.5052017728791081,-0.8505025366480842,-0.5588005723748161,-0.30893563976709737,-0.2275295128450164,-0.40323265323074636,2.842170943040401e-14,-0.6448890602727143,-1.490669487409742,1.1922498395844146,10
1.4871518765293412,1.6243365406295494,-0.9033914830105934,1.0798286682106244,0.7593633560830684,-0.30620812868298075,-0.024243060595581293,-0.1636187937440431,1.0291347465703389,0.13835815993109532,0.6746076444049002,-0.9328826673278255,1.7811616234886654,1.9077887531141764,1.6547276183726762,-1.2084653908163125,-0.1607701924227241,-1.5883780307986262,1.012977319661677,1.3242826902672187,-0.08536589181676306,0.25807977258085907,-0.20595262447956317,1.3910317310284654,1.67530890620648,2.064939634922391,-0.27081812181743614,-2.220446049250313e-16,-0.9170372811802596,0.0022991819125885754,-0.16452541720744088,-1.1499692980289338,-1.0649072217833417,-0.33284960802185326,3.3983311409573127,2.29208374909425,2.8502830537243935,4.808694131001835,2.143788113198002,3.3071328662784927,-2.6260951622118434,-3.275986327431571,-1.3824926158146797,3.0279719088665256,0.6222121094638937,2.813268556981677,2.5517160372594456,0.9700562755338438,1.4805732483810696,4.084127674835698,1.9423448865651514,1.6006396600126387,0.0,0.6388808711566917,-1.1732043183635017,1.5014041949251056,-0.22468821221560858,-0.12996578652939264,0.8611041311122366,0.048100681630072493,-0.18970226482278318,0.03381950403069718,-0.27124741792367035,0.23440417971438576,-0.2864736116209491,-0.19239604430583662,-0.10749853593098901,0.9055164185937237,-0.1440781367304317,-0.18187216817162555,0.899599102797769,-0.5399081007955938,-0.8421954341797414,-0.4794062652970105,-0.30893563976709737,-0.13413015855197621,-0.32107553272152045,2.842170943040401e-14,1.9812705188688318,-0.5422306700986254,2.088539872703532,10
0.10614545290424823,2.805124170390226,-0.6178448844489232,-2.4472824242634563,1.6202004213346304,-0.6369438444947402,0.008363036372073142,0.010301303813726166,1.0629751864250085,0.08720483756162599,0.9937740628424873,-0.8982961474211061,1.771959795421258,3.3407553091510502,1.677991594869533,-1.2084653908163125,-0.1607701924227241,-1.5883780307986262,1.012977319661677,2.4989891806035827,-0.08536589181676306,0.25479613645384347,0.878186314133181,1.31332779160842,1.67530890620648,2.920798176347201,0.15905369214667833,-2.220446049250313e-16,-0.769355210257812,0.7835817051592514,-0.3475755441586518,-0.6807517473320762,-0.5065562186349383,-1.5562675343424617,3.116236138083049,2.6240906511659716,0.6603368512057173,2.7392401434680256,1.144294467505383,0.14347427088992312,-2.6260951622118434,-3.275986327431571,-1.3824926158146797,3.0279719088665256,0.736677050468804,-0.8502161707179049,2.1205305538586945,1.1401548636109842,0.3652179954267928,2.9503963934574875,2.8620613874939864,1.5744137496234456,0.0,0.6972277247327326,-1.2499141826857745,-0.5278749730889913,-0.17167874676403827,-0.11674707346320452,0.9183170888920321,0.25618770613262654,-0.10951343669002736,0.19970970088177975,0.3704159842740648,0.4823237742152425,-0.11588655292831286,-0.19239604430583662,-0.10749853593098901,0.9212559009617914,-0.11179577139534846,-0.1400712051198206,0.9329444843508023,-0.5858924051194943,-0.8454566400950649,-0.38524648795341826,0.5393629869288162,-0.055106263371466166,0.5050587432716381,2.842170943040401e-14,0.5035183431769469,-0.1778959051819085,0.5782539454909746,10
-1.0235866277776329,0.8894932918749845,-0.5968366960358344,-2.1161452922463626,0.12756527149192184,-0.8239992868033875,-0.0906867710249042,-0.19125379929977415,1.0349988185181758,-0.0910892884383146,1.1165165899828404,-0.8498413480480599,1.9438664158420582,3.2021348862916543,1.6996813709411893,-1.2084653908163125,-0.1607701924227241,-1.5883780307986262,1.012977319661677,2.4989891806035827,-0.08536589181676306,0.41763745033387284,0.9781124587684606,1.2037245173529387,3.0651057281489713,2.78200966458989,0.21512577789873058,-2.220446049250313e-16,-0.2974150935095759,0.45619122215515634,-0.6072203891362707,-0.006019388134534712,-0.9608852687373214,-1.712043995713621,2.633192169776413,2.3603094342088227,0.5219539414585398,2.524036030312168,2.5097869251078344,0.5277663255664601,-1.505509416523181,-3.275986327431571,-1.3824926158146797,3.0279719088665256,0.736677050468804,-0.869025476111292,1.5177587480209744,0.999366194109339,0.41791861651351053,2.618952002985635,1.9423448865651514,1.138110154127776,0.0,1.1395579874812574,-1.1571131318056265,-0.3953348372216884,-0.13252472755973094,-0.1496159976731988,0.9591598172813891,0.1896509728657896,-0.14907656421603727,0.21985047039394953,0.7466640905302506,-0.3536202234646017,-0.16235893909718818,-0.19239604430583662,-0.10749853593098901,0.9212559009617914,-0.11179577139534846,-0.1400712051198206,0.9329444843508023,-0.6235719883073666,-0.8322387118562167,-0.31700097874863514,0.37087607188211863,-0.3215618090996206,0.531114946466903,2.842170943040401e-14,-0.5543035150889722,1.0766470691328498,-0.6368858381489804,10
