Unnamed: 0,Acc_x,Acc_y,Acc_z,Gyro_x,Gyro_y,Gyro_z,Mag_x,Mag_y,Mag_z,label
6449,-0.060425,0.939941,0.383667,-25.25711,-25.846481,4.673004,-13.186234,-45.610748,5.999573,10
6450,-0.059937,0.839355,0.462768,3.059387,-19.620895,4.611969,-12.436234,-44.410751,5.549576,10
6451,-0.037964,0.879883,0.432007,6.965637,-5.338669,7.785797,-13.486237,-44.860748,4.049576,10
6452,-0.083374,0.850586,0.40271,25.764465,-9.977341,24.936676,-12.28624,-45.010742,5.399567,10
6453,-0.088257,0.936035,0.387573,17.89093,-20.292282,18.71109,-13.78624,-45.460754,5.399567,10
6454,-0.003784,1.017578,0.381714,-22.266387,5.643845,29.575347,-13.336243,-44.560745,6.149567,10
6455,-0.045776,0.866699,0.353393,6.233215,6.803513,2.780914,-14.836243,-44.260742,7.19957,10
6456,-0.06189,0.960937,0.352417,0.984192,4.179001,12.79068,-15.436234,-42.460754,6.749573,10
6457,-0.019897,0.950683,0.346558,4.768372,-1.737595,11.997223,-15.886246,-43.960754,6.299576,10
6458,-0.086304,0.943847,0.352905,11.787415,-11.930466,13.217926,-15.586243,-44.260742,5.399567,10
6459,-0.031128,0.997558,0.348999,-1.57547,-24.442672,15.720368,-14.836243,-42.310745,5.69957,10
6460,0.070923,0.94873,0.379761,-0.598907,-11.564255,12.302399,-17.236236,-43.360748,6.44957,10
6461,0.02063,0.983398,0.356323,-13.965607,-33.903121,20.72525,-17.686233,-42.460754,6.749573,10
6462,0.091919,0.870605,0.400757,5.92804,-28.348922,34.397125,-17.986236,-43.360748,7.94957,10
6463,0.068481,0.917969,0.380737,12.519837,-43.2415,39.218902,-18.286239,-42.310745,8.399567,10
6464,0.112915,0.868652,0.364624,30.464172,-46.293258,44.28482,-19.636245,-42.910751,8.999573,10
6465,0.158325,0.898437,0.350952,40.901184,-48.551559,27.500152,-20.086242,-40.060745,9.599564,10
6466,0.254028,0.921875,0.309448,37.361145,-36.161422,26.52359,-20.236236,-40.660751,12.149567,10
6467,0.238403,0.909179,0.244019,40.107727,-47.697067,33.298492,-21.586242,-39.310745,13.799576,10
6468,0.217895,0.898926,0.204956,18.318176,-45.316696,41.416168,-22.486236,-38.710754,15.44957,10
6469,0.20813,0.849121,0.174683,34.553527,-61.918258,45.383453,-22.636245,-38.110748,17.549575,10
6470,0.25354,0.908203,0.099487,20.332336,-52.82402,33.542633,-24.736236,-36.760742,17.999572,10
6471,0.280884,0.958984,0.120483,12.702942,-59.354782,46.115875,-23.086242,-34.510742,20.849563,10
6472,0.371704,0.884765,0.178589,51.15509,-66.373825,45.139312,-24.586242,-34.510742,22.349563,10
6473,0.354614,0.955078,0.119019,3.059387,-39.762496,38.608551,-23.236236,-31.960754,25.199569,10
6474,0.022583,0.699707,-0.800903,-82.386016,33.109664,19.626617,-24.202651,-30.29512,23.578277,10
6475,-0.046753,0.620605,-0.669555,-47.473907,-3.629684,1.743317,-24.652648,-31.195129,22.078277,10
6476,0.003052,0.745605,-0.650513,-61.389923,-32.865524,-23.399353,-25.557037,-33.75,18.92633,10
6477,0.00354,0.873535,-0.697876,-108.020782,-46.842575,-17.051696,-25.257034,-33.75,17.126327,10
6478,0.027954,0.781738,-0.670044,-105.457305,-16.324996,0.217438,-23.911438,-35.104888,18.023391,10
6479,-0.036987,0.706543,-0.541626,-57.239532,-21.085739,14.255524,-22.411438,-35.854888,13.973404,10
6480,-0.079956,0.779297,-0.431274,-23.059844,-46.537399,22.61734,-23.611434,-36.004882,11.873398,10
6481,-0.012085,0.855469,-0.450317,-21.045684,-48.368453,21.518707,-23.171691,-37.069046,11.714127,10
6482,0.05188,0.879394,-0.465942,-23.853302,-37.504196,15.903473,-24.521682,-36.469055,12.314118,10
6483,0.010864,0.874023,-0.420532,-10.730744,-50.382614,17.307281,-23.921691,-35.869049,12.764115,10
6484,0.045532,0.766113,-0.349243,43.037414,-34.452438,35.251617,-24.221694,-37.519042,12.464127,10
6485,0.06604,0.863281,-0.422485,52.131652,-21.45195,35.190582,-24.671691,-37.519042,12.014115,10
6486,-0.028687,0.972656,-0.511352,9.529114,-55.936813,26.706695,-25.721694,-35.419052,14.714127,10
6487,0.073364,0.909179,-0.517212,-2.246857,-47.574996,27.011871,-26.321685,-34.519042,16.36412,10
6488,0.070435,0.863769,-0.492309,9.773255,-40.9832,22.068023,-25.268264,-33.765136,17.416564,10
6489,0.057739,0.789062,-0.489868,18.806457,-41.593551,24.692535,-25.568267,-32.115142,18.616561,10
6490,0.074341,0.898437,-0.527466,12.947083,-31.949996,36.838531,-24.968277,-33.165145,19.066558,10
6491,0.06604,0.816894,-0.504516,22.163391,-18.156051,42.087554,-25.418273,-31.515136,21.016555,10
6492,0.058228,0.958984,-0.560181,-21.961212,-28.043746,40.805816,-26.321197,-30.61856,22.6651,10
6493,0.044067,0.879394,-0.574341,-34.168243,-27.982711,41.660308,-26.471206,-30.018554,21.315094,10
6494,0.038696,0.82959,-0.57727,-23.853302,-13.27324,29.697418,-26.471206,-30.018554,23.26509,10
6495,0.046997,0.79834,-0.570434,-4.261017,-20.780563,15.720368,-26.771194,-28.218566,22.365097,10
6496,0.041626,0.875976,-0.519653,-26.172637,-34.696579,13.523102,-28.1212,-29.418563,21.9151,10
6497,0.1427,0.708496,-0.481567,24.787902,-28.715133,10.593415,-29.6212,-28.518554,21.615097,10
6498,0.162231,1.114746,-0.609009,-75.122833,-10.160447,6.198883,-27.966796,-28.815139,22.817047,10
6499,0.155273,0.161743,-0.829834,91.255187,-14.921189,-14.854432,-25.658889,-29.70343,25.095764,10
6500,0.144043,0.378052,-0.700439,103.218078,135.221481,98.300933,-20.858902,-29.403427,29.295761,10
6501,-0.256836,0.537231,-1.371826,133.43048,124.418258,35.068511,-22.200103,-27.303421,27.345275,10
6502,-0.080078,0.550415,-0.744873,14.045716,-123.380661,37.876129,-27.600097,-24.003417,27.945266,10
6503,0.244141,0.940552,-1.510009,-167.835235,-7.84111,173.069,-28.346191,-21.603912,30.795761,10
6504,0.599609,0.933227,-1.687256,-233.325958,124.479293,27.439117,-25.796203,-19.203918,31.245758,10
6505,0.039551,0.90393,-1.125732,-347.766876,9.428025,-86.997985,-31.359375,-22.799026,25.695266,10
6506,0.103027,-0.036987,-1.047119,-99.35379,-94.266891,-18.882751,-30.746688,-26.851959,19.09674,10
6507,-0.213867,-0.057983,0.0271,82.038879,-67.838668,-57.273864,-28.807922,-31.199035,14.295273,10
6508,-0.146484,-0.140015,-0.11499,225.654602,-72.538375,-107.261657,-27.32257,-31.196105,15.792832,10
6509,0.238281,0.626587,-0.237549,188.484191,128.080368,-25.840759,-26.57257,-29.996093,19.842834,10
6510,0.444336,1.433227,-1.383056,-119.00711,367.338195,17.856597,-22.987213,-27.293655,27.341369,10
6511,-0.67041,0.459595,-1.143799,-57.361602,-94.511032,18.772125,-28.846984,-24.892196,22.541854,10
6512,-0.148926,0.00061,-1.045166,258.918762,-209.989547,77.060699,-30.818954,-27.586334,18.339416,10
6513,0.162598,0.639282,-1.44458,225.898742,-61.491012,75.168609,-29.926269,-23.534378,23.738433,10
6514,0.145996,0.894165,-1.24292,76.057434,19.315719,146.884918,-29.489456,-19.630477,29.286972,10
6515,-0.004395,0.935669,-0.92749,-108.448028,25.663375,242.221832,-30.085556,-8.381455,32.587463,10
6516,0.039062,0.680298,-1.089111,-362.415313,-0.883102,242.588043,-31.444335,-7.925598,32.285995,10
6517,-0.110352,0.10022,-1.116455,-379.261016,94.755172,-18.943786,-32.794342,-6.875595,34.835998,10
6518,-0.50293,-0.356323,-0.477295,-60.657501,-250.02861,-136.924743,-34.144348,-11.675599,33.035995,10
6519,0.199707,0.129517,-1.870849,421.211242,-84.012985,-141.929626,-30.937698,-17.251953,33.49234,10
6520,0.324219,0.860962,-1.167236,113.410949,49.467086,-20.28656,-21.589859,-12.916611,44.293319,10
6521,-0.01123,1.547485,-0.988037,-246.753692,103.60527,-42.625427,-20.175888,-4.989563,45.931594,10
6522,-0.285644,0.433716,-0.974853,-212.940216,9.733201,-55.259704,-24.471206,-14.176178,44.577209,10
6523,-0.231934,0.296997,-0.872314,-111.377716,-113.920211,-22.789001,-25.577453,-20.501571,41.25914,10
6524,0.108887,0.95227,-0.236572,-2.307892,-0.394821,-3.135681,-10.899033,-28.588867,33.278869,10
6525,0.123535,0.959106,-0.250244,-0.415802,3.141403,-2.281189,-11.049027,-29.488876,33.428863,10
6526,0.106445,0.967895,-0.240967,1.045227,0.02861,-2.281189,-11.34903,-29.188873,30.728866,10
6527,0.118652,0.959594,-0.235107,1.533508,1.371384,-2.76947,-10.313187,-27.54132,33.432769,10
6528,0.10791,0.968872,-0.240967,-2.429962,0.699997,-2.342224,-12.11319,-29.191314,32.682769,10
6529,0.114746,0.965454,-0.246338,-4.505157,4.056931,0.278473,-9.86319,-28.29132,32.232772,10
6530,0.085449,0.960571,-0.236572,-1.392364,-1.432419,0.583649,-10.313187,-28.741317,32.232772,10
6531,0.11084,0.966919,-0.248291,-2.246857,0.883102,2.109528,-11.36319,-29.191314,34.482772,10
6532,0.100098,0.967895,-0.235596,-3.833771,-2.775192,-0.389099,-10.013199,-28.591308,32.082778,10
6533,0.137207,0.957153,-0.2229,-9.632111,-9.794236,-5.821228,-11.213196,-28.891311,32.832778,10
6534,0.098145,0.957641,-0.206787,-0.354767,-22.794723,6.687164,-10.913193,-30.091308,32.832778,10
6535,0.087402,0.948364,-0.214111,7.453918,-25.175094,5.588532,-10.013199,-29.341308,34.032775,10
6536,0.050293,0.979614,-0.234131,-6.397247,-22.489547,18.466949,-10.313187,-29.491317,33.432769,10
6537,0.121582,0.981567,-0.26001,-3.894806,-15.775681,6.87027,-9.11319,-30.391311,32.232772,10
6538,0.131836,0.931762,-0.243896,5.378723,-13.27324,1.010895,-9.86319,-29.491317,32.982772,10
6539,0.114746,0.980102,-0.222412,2.693176,-7.474899,0.095367,-9.713196,-29.79132,32.832778,10
6540,0.133789,0.965942,-0.235596,3.974915,1.79863,3.940582,-8.36319,-29.491317,32.682769,10
6541,0.116211,0.975219,-0.226807,2.510071,0.516891,4.550934,-8.963196,-29.341308,33.282775,10
6542,0.092773,0.973755,-0.241943,0.556946,-4.545212,3.025055,-9.11319,-28.29132,32.682769,10
6543,0.117676,0.9552,-0.246826,1.350403,0.211716,0.888824,-8.813187,-29.191314,33.432769,10
6544,0.119141,0.969848,-0.248291,2.02179,-1.066208,0.461578,-9.713196,-28.891311,34.782775,10
6545,0.12207,0.982055,-0.240478,1.899719,0.638962,0.400543,-9.561234,-27.990341,34.482284,10
6546,0.112305,0.98938,-0.235596,-0.659943,-1.737595,-0.87738,-9.561234,-28.740341,33.432281,10
6547,0.133789,0.965942,-0.249756,0.923157,0.272751,0.156403,-9.261246,-29.340332,34.032287,10
6548,0.125,0.949341,-0.234619,3.852844,-0.516891,-0.511169,-7.761246,-29.790344,32.83229,10
6549,0.117187,0.955688,-0.247803,1.533508,-1.859665,-0.022888,-7.461243,-28.590332,34.33229,10
6550,-0.07727,0.772217,-0.716675,-108.448028,-196.744918,93.418121,4.543121,-43.728332,8.84224,10
6551,0.064819,0.663818,-0.563354,-42.224884,-174.467086,69.49234,1.691177,-45.087112,5.690292,10
6552,0.299683,0.684814,-0.494507,-9.754181,-36.771774,74.192047,0.041168,-45.387115,4.790298,10
6553,0.159058,0.537842,-0.533081,67.634582,0.455856,22.61734,-4.011734,-43.14151,4.938339,10
6554,0.391968,0.882568,-0.950561,128.059387,36.283493,90.793609,-4.625397,-43.452743,4.48053,10
6555,0.204468,0.864502,-0.874878,6.477356,52.82402,-15.892029,-6.4254,-43.752746,8.530533,10
6556,0.043823,0.60376,-0.836304,-8.106232,-26.945114,-82.054138,-8.975403,-42.852737,11.23053,10
6557,0.098999,0.685303,-0.775757,-69.751739,-24.442672,-85.533142,-6.433701,-42.55957,11.829056,10
6558,0.197144,0.722412,-0.733764,-65.479278,-2.286911,-24.19281,-2.383698,-44.509582,8.529068,10
6559,0.12146,0.698974,-0.569702,-44.239044,18.400192,4.184723,-1.188095,-44.215438,8.827591,10
6560,0.016968,0.653076,-0.512085,-4.138947,37.19902,39.218902,0.161881,-45.565429,4.627594,10
6561,-0.15686,0.52124,-0.383179,133.552551,-76.688766,76.694488,-3.288101,-43.615432,4.627594,10
6562,-0.053345,1.132568,-0.685425,65.193176,-136.86943,67.905426,-4.938095,-44.515441,7.027603,10
6563,0.200073,0.838135,-0.816772,14.717103,-82.670211,76.694488,-7.188095,-43.015441,11.827591,10
6564,0.20105,0.561767,-0.89978,13.61847,-60.880661,101.718902,-5.695419,-42.572265,12.576615,10
6565,0.205933,0.718506,-0.985718,-72.681427,-21.879196,147.190094,-8.845414,-41.822265,13.326615,10
6566,0.08728,0.665771,-0.755737,-140.30838,-5.887985,127.902984,-12.895417,-41.072265,13.776627,10
6567,0.103882,0.389893,-0.713257,-40.027618,-7.71904,4.306793,-14.855668,-39.428131,11.07515,10
6568,-0.085571,0.373291,-0.320679,43.830871,-100.675582,-32.12738,-18.90567,-40.778137,7.625153,10
6569,0.325561,0.585205,-0.526245,149.909973,84.867477,-69.602966,-18.314956,-40.630569,10.32222,10
6570,0.718628,1.078857,-1.112671,127.876281,227.506637,-67.100524,-16.21495,-40.030578,10.922226,10
6571,-0.031372,0.964599,-0.866089,-30.872345,98.661422,-92.308044,-15.014954,-40.030578,17.222229,10
6572,-0.039185,0.368408,-0.723511,54.267883,28.837204,-124.351501,-15.018372,-38.832519,14.672226,10
6573,0.111206,0.712158,-0.870483,-22.815704,43.180465,-164.024353,-10.668366,-40.632522,13.022233,10
6574,0.021362,0.565185,-0.831909,-80.493927,-51.969528,-80.162048,-7.535461,-43.642776,13.169297,10
6575,0.141846,0.964721,-0.189209,-37.586212,-34.574508,10.715485,-27.130187,-35.780471,7.942734,10
6576,0.163818,0.996948,-0.171143,-35.511016,-16.080856,8.152009,-27.880188,-35.780471,5.392731,10
6577,0.181396,0.940796,-0.110596,-21.961212,-10.709763,-7.041931,-27.885559,-34.132431,5.690781,10
6578,0.142334,0.935425,-0.070557,-11.524201,-11.50322,-9.361268,-28.185546,-34.732421,7.040787,10
6579,0.204834,0.929565,-0.050049,8.857728,5.887985,-4.53949,-26.835556,-35.782424,7.190781,10
6580,0.13501,0.94519,-0.045166,14.472962,-1.005173,-3.929138,-27.585556,-35.032424,5.690781,10
6581,0.149658,1.011596,-0.100342,4.707336,0.211716,-1.914978,-28.485549,-36.832428,7.340775,10
6582,0.123779,0.9906,-0.108154,2.632141,-4.179001,-4.66156,-26.235549,-35.632431,6.290787,10
6583,0.168701,1.022339,-0.142822,-3.284454,7.047653,-4.112244,-26.685546,-36.832428,7.790787,10
6584,0.106689,0.981323,-0.156006,-2.307892,3.69072,-4.53949,-27.435546,-35.932434,6.290787,10
6585,0.102783,0.986206,-0.147705,-0.720978,5.765915,-0.63324,-26.235549,-35.182434,7.340775,10
6586,0.112061,0.9823,-0.139893,1.472473,7.71904,4.062653,-26.985549,-36.832428,7.040787,10
6587,0.109619,0.997436,-0.137939,4.15802,9.36699,4.184723,-26.235549,-35.182434,5.540787,10
6588,0.089844,1.006103,-0.168945,4.951477,14.066697,-1.243591,-26.385559,-35.782424,6.890778,10
6589,0.104004,0.98999,-0.139038,3.547668,14.127732,-0.389099,-27.435546,-36.382431,6.590775,10
6590,0.067627,1.010742,-0.133301,-6.214142,9.977341,-4.234314,-26.385559,-35.782424,5.390778,10
6591,0.103271,1.041015,-0.171875,-20.252227,52.518844,-14.488221,-27.585556,-34.582428,5.390778,10
6592,0.194092,0.928711,-0.137207,15.998841,115.262985,-25.718688,-28.635559,-37.282424,3.440781,10
6593,0.154053,0.892578,-0.144043,42.488098,145.170211,-47.75238,-26.235549,-36.382431,2.990784,10
6594,0.105713,0.987793,-0.156738,4.768372,140.043258,-54.954528,-24.885559,-37.882431,0.290787,10
6595,-0.018799,1.034179,-0.094238,-18.543243,75.284957,-60.081481,-23.5419,-36.984863,-1.363586,10
6596,-0.029053,1.022461,-0.120605,-2.063751,27.128219,-32.310485,-22.341903,-39.684875,-1.063583,10
6597,0.052002,0.946777,-0.140137,22.651672,35.123825,-13.938904,-22.641906,-41.934875,-2.713577,10
6598,-0.019287,1.037109,-0.187012,2.571106,27.738571,-4.844666,-19.935562,-41.030471,-5.708694,10
6599,-0.018311,1.038574,-0.175293,-11.03592,15.958786,0.94986,-20.085556,-41.630477,-3.908707,10
6600,0.030029,0.975097,-0.137207,-11.524201,38.785934,-0.938416,-20.535553,-41.330474,-3.908707,10
6601,0.182007,0.721802,-0.775268,20.271301,100.126266,-66.612243,-8.065445,-7.876373,44.282669,10
6602,0.10144,0.60022,-0.644897,17.219543,100.614547,-105.735778,-12.715439,-5.926376,42.782669,10
6603,0.066772,0.661255,-0.76355,27.351379,96.830368,-119.102478,-14.533997,-7.413193,43.983657,10
6604,0.046265,0.737427,-1.055542,17.097473,112.882614,-94.74945,-17.083999,-8.013199,42.633651,10
6605,-0.084595,0.459106,-0.478393,-8.350373,44.645309,-100.975036,-19.341812,-8.759278,39.634628,10
6606,0.031128,0.324341,-0.881225,40.229797,76.688766,-83.702087,-19.641799,-9.809281,40.384628,10
6607,-0.05481,0.519165,-1.003784,52.986145,49.345016,-76.499938,-21.741806,-13.559281,37.534622,10
6608,-0.10852,0.580688,-0.91394,-5.664825,14.310837,-82.603454,-22.063293,-12.203431,37.385604,10
6609,-0.073853,0.487915,-0.819702,5.256653,8.024216,-84.007263,-23.563293,-11.903428,37.085601,10
6610,-0.089478,0.488403,-0.817261,-4.993439,-0.638962,-94.078063,-21.76329,-13.253418,38.285598,10
6611,-0.035767,0.541138,-0.876831,-17.261505,43.729782,-110.25238,-19.51329,-14.753418,37.98561,10
6612,-0.03772,0.648559,-0.830444,-38.135528,10.953904,-45.555114,-19.663284,-17.303421,36.635604,10
6613,-0.149536,0.545044,-0.735718,-8.106232,39.762496,11.875153,-19.51329,-19.553421,35.73561,10
6614,-0.30481,0.602661,-0.682495,-12.866974,-67.533493,59.665679,-19.234771,-20.753418,34.98854,10
6615,-0.18811,0.403931,-0.706421,48.591613,-30.179977,41.477203,-18.934768,-19.253417,34.838531,10
6616,-0.12854,0.637329,-0.882202,58.723449,-14.738083,36.838531,-20.13478,-18.503417,35.888534,10
6617,-0.170532,0.687134,-0.908569,33.454895,-36.161422,62.046051,-17.584777,-16.403427,36.788528,10
6618,-0.144165,0.583618,-0.848999,-1.148224,-61.857223,103.916168,-19.534774,-14.753418,36.788528,10
6619,-0.157837,0.512817,-0.797729,2.754211,-45.560836,128.513336,-18.21553,-11.446106,39.339996,10
6620,-0.171509,0.737427,-0.978393,-39.234161,-46.598434,129.489898,-18.815536,-12.3461,38.740005,10
6621,-0.137817,0.649536,-0.848511,-95.081329,-80.717086,94.577789,-18.515533,-11.5961,37.240005,10
6622,0.068237,0.426392,-0.883667,-45.886993,-31.339645,52.463531,-15.36554,-9.646103,39.789993,10
6623,-0.03186,0.284302,-0.49646,9.162903,-82.487106,-15.281678,-16.145324,-11.281937,40.240982,10
6624,-0.056274,0.451782,-0.850464,94.184875,-62.345504,-27.854919,-13.595322,-12.781937,41.290969,10
6625,0.021851,0.837036,0.109985,-24.524688,-34.696579,66.074371,-25.532424,-33.518463,19.744689,10
6626,-0.005005,0.779907,0.247681,43.281555,-55.997848,70.224761,-25.082427,-33.068466,17.494689,10
6627,0.123901,0.885376,0.224243,106.513977,-8.939744,82.004547,-25.832428,-30.668457,19.744689,10
6628,0.299683,1.143188,0.109009,82.710266,-3.202438,45.566558,-26.432434,-29.318466,22.59468,10
6629,0.415893,0.90979,-0.080444,95.405578,-8.756638,42.209625,-29.282424,-26.618469,26.34468,10
6630,0.530151,0.987915,-0.055542,43.46466,-8.024216,-13.084412,-29.128524,-23.168457,26.795181,10
6631,0.421265,1.123657,-0.18689,-16.529083,-15.714646,-27.061462,-29.428527,-20.918457,28.295181,10
6632,0.332886,0.928833,-0.118042,-8.106232,-0.638962,-17.662048,-29.294143,-21.813095,29.194198,10
6633,0.248901,0.922973,-0.114136,-7.312775,-15.714646,-16.990661,-29.144149,-23.163085,29.044204,10
6634,0.245483,0.966919,-0.131226,-4.993439,-21.024703,-23.704528,-27.49414,-24.963089,28.144195,10
6635,0.204956,1.035278,-0.158569,-35.755157,-30.118942,-19.493103,-27.2005,-24.662109,28.444198,10
6636,0.159058,0.960571,-0.140991,-36.792755,-46.476364,-15.525818,-27.2005,-23.762115,28.894195,10
6637,0.28064,0.673462,-0.062378,64.704895,0.638962,10.65445,-24.800491,-25.112121,27.994201,10
6638,0.439819,0.789184,-0.194702,144.111633,141.202926,75.168609,-24.2005,-24.962112,30.694198,10
6639,0.293335,1.007934,-0.316772,166.32843,182.889938,67.234039,-27.050491,-21.212112,29.794204,10
6640,0.231811,0.965942,-0.178589,120.429992,51.603317,-13.145447,-31.850494,-16.862121,28.744201,10
6641,0.374878,1.00354,-0.318726,36.933898,8.939744,-42.320251,-33.96466,-14.305283,28.14273,10
6642,0.355347,0.947876,-0.354858,8.06427,-6.925583,-42.198181,-34.264648,-14.305283,29.64273,10
6643,0.312378,0.80188,-0.275757,37.239074,-6.925583,-9.239197,-33.064651,-12.805283,28.442733,10
6644,0.190796,0.770141,-0.428589,106.025695,-10.160447,-25.718688,-32.938095,-14.591126,30.238342,10
6645,0.131714,0.776001,-0.533081,126.533508,-31.339645,-10.643006,-33.388092,-11.74112,32.488342,10
6646,0.154175,0.928344,-0.471558,64.704895,-61.124801,-14.183045,-30.525878,-9.947464,33.389801,10
6647,0.264038,0.825805,-0.531128,28.388977,-51.481246,-18.63861,-31.575881,-7.847473,32.939804,10
6648,0.162964,0.873169,-0.864624,-16.834259,-53.312301,-37.132263,-29.175888,-6.347473,35.339797,10
6649,0.009644,0.900512,-0.532104,-58.948516,32.133102,-32.920837,-24.272567,-21.486526,26.911193,10
6650,0.052612,0.807251,-0.480835,-50.403594,45.01152,-24.559021,-25.622573,-23.736526,24.811187,10
6651,0.03894,0.824829,-0.44519,-30.994415,62.223434,-24.497985,-25.022567,-26.586532,23.461196,10
6652,0.038452,0.822388,-0.392944,-7.434845,48.7957,-29.197692,-24.894546,-27.198242,23.014602,10
6653,0.025269,0.857055,-0.390015,0.312805,67.411422,-40.306091,-25.494537,-29.448242,20.914611,10
6654,0.073608,0.979126,-0.443237,-18.421173,47.880172,-29.502868,-26.094543,-28.098251,19.564605,10
7676,-0.213989,0.102539,-0.999634,-16.777038,8.476258,11.699677,-66.964172,96.129058,-49.691894,4
7677,-0.221802,0.047363,-0.912231,-0.785828,12.748719,18.779754,-65.314163,96.279068,-48.341903,4
7678,-0.209595,-0.00293,-0.961548,33.32901,10.612488,17.009735,-62.76416,96.879058,-48.191894,4
7679,-0.217407,0.040527,-0.934204,39.981842,15.007019,16.216278,-62.614166,99.129058,-50.591903,4
7680,-0.255981,0.139648,-1.013794,9.098053,4.020691,19.939422,-61.714172,96.579055,-51.941894,4
7681,-0.257446,0.118164,-0.984497,-6.828308,-9.159089,18.718719,-59.614166,96.729064,-55.5419,4
7682,-0.21936,0.062012,-0.993774,-2.433777,-6.595612,12.554169,-58.26416,98.079055,-55.691894,4
7683,-0.214966,0.081543,-0.969848,-3.410339,-9.89151,19.268035,-56.76416,97.329055,-55.691894,4
7684,-0.217407,0.099609,-0.925903,-4.692078,-7.99942,25.615692,-55.864166,97.929061,-53.2919,4
7685,-0.151001,0.015625,-0.893188,13.67569,30.632019,21.404266,-54.814163,100.929061,-54.941894,4
7686,-0.204224,0.072266,-1.069946,16.727447,21.965026,10.234833,-53.464172,102.579055,-54.0419,4
7687,-0.261352,0.099609,-1.022094,12.638093,1.213074,10.173798,-53.01416,100.929061,-54.941894,4
7688,-0.181274,0.074219,-0.884887,-2.799988,3.166199,10.417939,-51.064163,100.479064,-56.441894,4
7689,-0.198364,0.101562,-1.044067,-6.889343,-3.299713,12.310029,-50.164169,101.079055,-57.0419,4
7690,-0.215454,0.086914,-0.970337,-9.086609,1.51825,11.02829,-50.164169,101.079055,-57.341903,4
7691,-0.221313,0.106445,-0.971802,-16.044616,-4.825592,14.995575,-48.064163,101.979064,-54.941894,4
7692,-0.192993,0.061523,-0.9552,-9.33075,-11.844635,15.361786,-46.864166,102.429061,-52.691894,4
7693,-0.190552,-0.013672,-0.916137,21.549224,-11.905671,2.056122,-47.01416,103.779068,-53.591903,4
7694,-0.157349,0.056641,-1.054321,21.488189,4.020691,-6.240845,-47.314163,104.829055,-52.991897,4
7695,-0.19397,0.131836,-1.037231,6.778717,-0.06485,-5.630493,-47.01416,103.479064,-53.2919,4
7696,-0.204712,0.158691,-0.99768,-23.735046,-5.374908,-10.269166,-49.114166,102.879058,-55.991897,4
7697,-0.227661,0.14209,-1.027954,-40.94696,-5.558014,-18.447875,-48.064163,103.629058,-53.441894,4
7698,-0.194458,0.104492,-0.960083,-25.932312,-14.591218,-36.697387,-48.664169,103.479064,-48.7919,4
7699,-0.184204,0.116211,-0.990356,-20.011901,-16.422271,-39.138793,-51.664169,103.779068,-48.341903,4
7700,-0.178833,0.094727,-0.961059,-0.846863,4.875183,-26.260375,-56.164169,103.029067,-44.2919,4
7701,-0.169556,0.080078,-0.937134,2.07901,11.711121,-21.194458,-56.614166,102.579055,-43.991897,4
7702,-0.19397,0.055664,-0.914184,13.004303,16.166687,-17.593383,-56.914169,101.529068,-45.0419,4
7703,-0.243774,0.033691,-0.949341,28.690338,8.598328,-30.227661,-57.364166,101.079055,-45.0419,4
7704,-0.259888,0.157227,-1.081177,5.680084,1.396179,-32.974243,-58.414169,99.429061,-48.341903,4
7705,-0.234009,0.154785,-1.023071,-5.607605,-3.84903,-37.91809,-59.914169,97.929061,-49.091903,4
7706,-0.245239,0.123047,-0.978149,-22.819519,-10.929108,-42.861938,-61.714172,97.329055,-48.941894,4
7707,-0.230591,0.149902,-0.972778,-39.482116,-17.82608,-47.439575,-64.114166,97.179061,-47.591903,4
7708,-0.210083,0.138672,-0.950317,-45.890808,-4.459381,-45.974731,-69.064163,94.779068,-43.5419,4
7709,-0.215942,0.095215,-0.95813,-25.382995,1.091003,-48.416137,-71.01416,94.329055,-41.741897,4
7710,-0.216431,0.094727,-0.873657,-14.152527,14.884949,-48.721313,-74.614166,92.979064,-37.391906,4
7711,-0.227661,0.11377,-0.977173,-11.22284,14.945984,-47.683715,-75.214172,93.129058,-37.5419,4
7712,-0.27063,0.10791,-0.947876,8.548737,8.598328,-41.82434,-77.76416,91.629058,-37.991897,4
7713,-0.251099,0.109863,-0.946411,16.849517,6.889343,-42.312622,-81.214172,89.979064,-36.0419,4
7714,-0.26477,0.130859,-0.98938,21.671295,3.288269,-40.664672,-81.214172,86.079055,-38.741897,4
7715,-0.246704,0.147461,-0.954712,1.834869,5.4245,-29.800415,-84.214172,82.929061,-40.5419,4
7716,-0.290161,0.144531,-0.984009,-2.799988,-7.205963,-21.316528,-85.414169,82.929061,-40.991897,4
7717,-0.2677,0.079102,-0.948852,-1.335144,-2.628326,-26.565551,-86.614166,81.429061,-39.491897,4
7718,-0.271606,0.057129,-0.995239,3.910065,-15.323639,-19.973754,-86.914169,82.179061,-38.2919,4
7719,-0.247192,0.064453,-0.924927,1.224518,-11.295319,-21.011352,-91.564163,79.479064,-39.0419,4
7720,-0.238892,0.0625,-0.928344,-1.274109,4.203796,-12.405396,-89.614166,78.279068,-35.741897,4
7721,-0.234497,0.066895,-0.907837,-7.133484,7.011414,-12.222291,-91.714172,76.779068,-34.841903,4
7722,-0.245727,-0.005859,-0.935669,0.553131,6.767273,-16.983032,-92.464172,77.979064,-34.841903,4
7723,-0.282837,-0.018555,-1.02063,23.319244,7.255554,-20.645141,-92.01416,76.779068,-32.741897,4
7724,-0.269653,-0.031738,-0.968384,29.850006,-3.604889,-24.490356,-93.814163,77.079055,-32.141906,4
7725,-0.265259,-0.009277,-1.007934,32.596588,-1.590729,-17.898559,-96.364166,73.179061,-31.391906,4
7726,-0.246704,0.000977,-0.991821,17.093658,5.180359,-7.705688,-98.314163,71.079055,-32.891906,4
7727,-0.25647,-0.057617,-0.963012,17.215728,-10.929108,-9.231568,-97.26416,70.329055,-32.891906,4
7728,-0.246704,-0.050293,-0.991821,22.037506,-5.435944,-8.0719,-98.464172,69.729064,-30.7919,4
7729,-0.234985,-0.044922,-0.953735,12.577057,-0.553131,-2.456665,-98.01416,68.379058,-31.091903,4
7730,-0.241821,-0.023926,-0.981079,-2.799988,-1.529694,0.469208,-98.01416,66.429061,-30.641906,4
7731,-0.241333,0.00293,-0.959106,-20.011901,9.025574,4.985809,-96.814163,66.879058,-28.391906,4
7732,-0.25647,-0.07373,-0.966919,-11.405945,-6.839752,-1.113892,-97.26416,64.779068,-28.091903,4
7733,-0.248169,-0.103516,-0.986938,0.247955,-2.872467,-12.405396,-98.914169,61.929061,-25.991897,4
7734,-0.247681,-0.105957,-0.976196,18.558502,7.072449,-6.057739,-100.564163,60.129058,-24.641906,4
7735,-0.247681,-0.094727,-0.930298,24.356842,5.119324,-4.837036,-102.064163,58.929061,-25.841903,4
7736,-0.285278,-0.046387,-0.995727,11.234284,-4.154205,-2.761841,-103.864166,55.929061,-25.241897,4
7737,-0.276489,-0.039062,-1.00354,-2.738953,-6.534576,-9.292603,-106.114166,53.979064,-24.941909,4
7738,-0.276978,-0.084473,-0.96936,1.102447,-4.398346,-3.921509,-105.664169,52.479064,-26.441909,4
7739,-0.249634,-0.114258,-0.962524,8.975983,-12.271882,-2.883911,-107.464172,50.679061,-25.391906,4
7740,-0.234009,-0.07666,-0.998169,-1.029968,3.898621,2.300262,-110.164169,48.729064,-28.091903,4
7741,-0.276489,-0.036621,-0.994262,-17.143249,-0.247955,2.605438,-110.464172,47.979064,-29.591903,4
7742,-0.285278,-0.090332,-0.943969,-6.217957,7.499695,1.20163,-113.914169,49.479064,-32.591903,4
7743,-0.250122,-0.106445,-0.948852,0.980377,12.260437,5.22995,-114.064163,50.079055,-35.141906,4
7744,-0.272095,-0.087402,-0.936645,4.21524,2.677917,8.525849,-115.864166,51.879058,-37.5419,4
7745,-0.252075,-0.094238,-0.984985,16.178131,7.6828,24.028778,-118.114166,55.329055,-41.2919,4
7746,-0.226685,-0.093262,-0.942993,13.309479,21.476745,9.807587,-119.614166,57.729064,-43.991897,4
7747,-0.267212,-0.086426,-0.950805,8.060456,12.870789,15.361786,-119.01416,62.229064,-47.141906,4
7748,-0.293579,-0.106934,-1.005005,10.562897,1.64032,9.929657,-117.814163,63.879058,-48.941894,4
7749,-0.238892,-0.082031,-0.963012,-4.570007,-6.046295,19.390106,-115.414169,65.679061,-49.841903,4
7750,-0.234497,-0.041504,-0.952759,-24.101257,-5.069733,15.117646,-113.164169,66.429061,-49.5419,4
7751,-0.240356,-0.108398,-0.973266,-14.762879,-10.684968,10.723114,-109.864166,68.529068,-48.641906,4
7752,-0.239868,-0.032227,-0.991333,-11.711121,-13.065339,27.141571,-106.714172,71.529068,-47.2919,4
7753,-0.201294,-0.078613,-0.915161,-5.485535,0.236511,31.291961,-103.114166,70.929061,-44.141906,4
7754,-0.242798,-0.114258,-1.026001,11.7836,-11.66153,23.052215,-101.914169,72.579055,-45.641906,4
7755,-0.237427,-0.02832,-1.057251,17.94815,10.551453,2.056122,-99.064163,77.079055,-47.2919,4
7756,-0.261841,-0.125488,-0.83313,21.183013,6.706238,-0.38147,-97.26416,77.379058,-46.5419,4
7757,-0.269653,-0.057129,-1.031372,18.680572,-0.247955,6.328583,-98.164169,78.429061,-48.941894,4
7758,-0.241821,-0.062988,-0.925903,-0.785828,2.799988,3.398895,-97.564163,78.579055,-51.7919,4
7759,-0.284302,-0.073242,-1.008911,-6.523132,-1.895905,0.591278,-96.814163,79.479064,-49.841903,4
7760,-0.238403,-0.051758,-0.984009,-19.218444,-0.614166,1.384735,-96.814163,77.829055,-51.341903,4
7761,-0.255981,-0.071777,-0.970825,-12.687684,5.54657,11.516572,-94.714172,79.629058,-50.891906,4
7762,-0.259888,-0.047852,-0.953247,-17.753601,-5.313873,8.403779,-94.414169,79.929061,-50.891906,4
7763,-0.256958,-0.086914,-0.964966,0.675201,-3.543854,1.750946,-92.614166,82.929061,-51.0419,4
7764,-0.238892,-0.080078,-0.946899,8.853913,8.293152,4.192352,-93.064163,82.629058,-49.091903,4
7765,-0.247681,-0.02832,-0.955688,4.764557,4.142761,-2.334595,-92.614166,80.529068,-48.7919,4
7766,-0.255493,-0.020996,-0.998169,0.431061,5.66864,-0.50354,-92.76416,82.029067,-49.391906,4
7767,-0.246704,-0.101074,-0.957153,21.671295,6.706238,2.422333,-93.064163,81.429061,-49.091903,4
7768,-0.248657,-0.069336,-0.975219,17.642974,-1.529694,-8.132935,-94.414169,79.179061,-49.691894,4
7769,-0.259399,-0.029785,-0.993774,4.09317,-0.675201,0.347137,-94.414169,77.979064,-51.491897,4
7770,-0.259888,-0.079102,-0.962036,6.046295,-0.308991,-7.522583,-92.76416,78.879058,-51.941894,4
7771,-0.224731,-0.080078,-0.977173,11.112214,1.274109,-1.968384,-93.214172,78.429061,-50.891906,4
7772,-0.228638,-0.108398,-0.979126,11.600495,-0.308991,-3.250122,-93.51416,76.029067,-52.691894,4
7773,-0.22229,-0.112305,-0.998169,8.975983,0.541687,-4.165649,-94.564163,74.229064,-53.591903,4
7774,-0.239868,-0.116699,-0.934204,6.717682,-1.346588,-6.607056,-93.964172,75.279068,-52.991897,4
7775,-0.236938,-0.057617,-0.963501,-8.964539,-2.017975,-6.973267,-96.064163,71.529068,-52.841903,4
7776,-0.237915,-0.129883,-0.962036,0.553131,3.044128,-1.235962,-95.614166,73.179061,-53.2919,4
7777,-0.243286,-0.137695,-0.970825,10.868073,-3.116608,-3.860474,-96.814163,73.929061,-52.841903,4
7778,-0.260376,-0.098145,-1.007446,4.21524,-2.445221,-2.090454,-96.064163,73.179061,-53.591903,4
7779,-0.235474,-0.162109,-0.960083,16.483306,3.77655,1.3237,-95.614166,73.179061,-54.341903,4
1608931,-0.321899,-0.301025,-0.900635,-1.039505,0.938416,-1.375198,58.839126,-19.121978,-52.216018,3
1608932,-0.338013,-0.300049,-0.887451,-1.832962,-0.644684,2.099991,59.289123,-18.371978,-52.666015,3
1608933,-0.319458,-0.310303,-0.89624,2.496719,0.450134,4.907608,58.689117,-17.471984,-52.066024,3
1608934,-0.316528,-0.310791,-0.897705,1.825333,0.022888,4.419327,57.789123,-19.121978,-52.216018,3
1608935,-0.309692,-0.323486,-0.895263,20.257949,21.018981,19.983291,58.839126,-18.821975,-53.716018,3
1608936,-0.220337,-0.336182,-0.909424,66.705703,86.753845,125.757217,59.289123,-27.821975,-45.916015,3
1608937,-0.233032,-0.255615,-0.845459,25.201797,81.748962,149.133682,58.539123,-36.521972,-38.866027,3
1608938,-0.262817,-0.276123,-0.83081,-22.157669,20.957946,116.907119,55.539123,-49.871978,-31.816024,3
1608939,-0.298462,-0.272217,-0.918213,-32.167434,4.295349,84.741592,52.089126,-50.621978,-32.116027,3
1608940,-0.282837,-0.209717,-0.934814,-35.890579,10.765076,59.228897,44.289123,-54.071975,-33.766021,3
1608941,-0.294556,-0.128174,-1.01001,-61.464309,19.432067,6.311417,41.889114,-55.421981,-35.416015,3
1608942,-0.32727,-0.125732,-0.889404,-27.406692,26.512146,34.265518,40.539123,-53.621978,-36.466018,3
1608943,-0.376587,-0.090576,-0.927978,-14.772416,-14.377594,8.386612,40.539123,-52.421981,-37.216018,3
1608944,-0.343872,-0.062744,-0.93042,-6.837845,-12.607575,27.30751,39.189117,-54.221984,-38.416015,3
1608945,-0.291626,-0.038818,-0.96167,-11.415482,15.525818,8.203507,37.689117,-51.821975,-39.166015,3
1608946,-0.354126,0.017822,-0.988525,-29.603958,-4.550934,5.151749,37.689117,-53.771972,-40.666015,3
1608947,-0.338501,0.002686,-0.983642,-26.247024,-22.190094,12.781144,38.439117,-50.621978,-43.666015,3
1608948,-0.28772,0.091553,-1.052002,-9.157181,-11.386872,41.650772,33.339126,-53.621978,-48.316024,3
1608949,-0.240845,0.116943,-1.036377,17.084121,0.938416,29.993057,25.689117,-56.771972,-50.266021,3
1608950,-0.153442,0.094971,-0.957275,-10.133744,11.924744,-1.741409,24.039123,-58.571975,-48.166015,3
1608951,-0.186157,0.090088,-0.908447,-26.67427,43.418884,-29.57344,24.48912,-55.571975,-48.316024,3
1608952,-0.238403,0.113037,-0.830322,-26.124954,17.112731,-22.554397,27.789123,-54.221984,-51.166015,3
1608953,-0.238403,0.420166,-0.991943,-93.751907,13.633729,-17.915725,28.539123,-44.321975,-63.466018,3
1608954,-0.328735,0.306885,-0.799072,-41.444778,-18.95523,1.550674,30.939117,-36.671981,-68.116027,3
1608955,-0.287231,0.414795,-0.930908,-45.96138,-2.353668,2.649307,30.48912,-32.921981,-70.816024,3
1608956,-0.302368,0.448486,-0.839599,-29.054641,-10.227204,7.77626,30.039123,-27.371978,-71.566024,3
1608957,-0.334595,0.57251,-0.775635,-9.035111,-26.035308,43.664932,28.539123,-23.921981,-75.766021,3
1608958,-0.249145,0.547119,-0.829834,-6.349564,-13.767243,19.556045,26.439117,-24.821975,-75.916015,3
1608959,-0.302856,0.597412,-0.801514,3.534317,-4.123688,8.203507,22.389114,-25.871978,-76.816024,3
1608960,-0.320923,0.492432,-0.785889,13.544083,-18.894195,12.598038,21.48912,-25.721984,-77.416015,3
1608961,-0.317993,0.565185,-0.789795,-10.377884,-0.94986,9.607316,21.339126,-27.071975,-77.266021,3
1608962,-0.293091,0.555908,-0.739502,-0.123978,6.370544,18.762588,19.839126,-29.021972,-77.566024,3
1608963,-0.329712,0.553467,-0.825928,20.38002,-14.68277,9.973526,20.589126,-27.071975,-78.016021,3
1608964,-0.254028,0.523193,-0.906494,6.64711,4.417419,-2.473831,18.639114,-29.021972,-76.816024,3
1608965,-0.326782,0.498779,-0.781982,7.013321,-9.555817,1.916885,18.789123,-29.621978,-77.416015,3
1608966,-0.296997,0.562256,-0.828369,1.214981,13.633729,-7.173538,17.289123,-30.821975,-77.416015,3
1608967,-0.345825,0.520752,-0.814209,3.656387,1.670837,2.099991,19.839126,-30.221984,-76.816024,3
1608968,-0.307739,0.498291,-0.762939,0.116348,-6.015778,6.250381,18.639114,-31.721984,-76.066024,3
1608969,-0.328247,0.576904,-0.796631,-10.43892,-15.110016,1.245499,19.23912,-29.171981,-75.616027,3
1608970,-0.296509,0.529053,-0.815185,-12.57515,-1.621246,-2.473831,17.889114,-28.571975,-76.516021,3
1608971,-0.286255,0.545654,-0.835205,-0.673294,8.262635,-4.732132,17.589126,-30.221984,-76.516021,3
1608972,-0.294556,0.470947,-0.80542,10.858536,7.469177,-5.586624,17.139114,-28.571975,-78.316024,3
1608973,-0.311645,0.529053,-0.776611,1.886368,0.938416,-6.990433,18.639114,-29.471984,-77.266021,3
1608974,-0.297485,0.545654,-0.808838,-2.382278,1.731873,-3.084183,17.889114,-30.971984,-78.766021,3
1608975,-0.354736,0.53186,-0.776855,-9.218216,1.121521,-16.145706,20.889114,-30.521972,-75.766021,3
1608976,-0.338623,0.504516,-0.813965,-11.354447,-5.344391,-8.028031,20.589126,-29.021972,-76.066024,3
1608977,-0.346435,0.519775,-0.803955,-2.443314,-0.522614,0.818253,22.98912,-26.021972,-76.366027,3
1608978,-0.348877,0.512939,-0.808838,-7.448196,-0.94986,0.268936,21.189117,-27.221984,-76.966018,3
1608979,-0.380615,0.484619,-0.779053,-0.307083,-21.945953,14.551163,21.639114,-26.621978,-77.266021,3
1608980,-0.313232,0.513428,-0.784424,-12.941361,1.609802,2.832413,20.139114,-25.421981,-77.566024,3
1608981,-0.434814,0.527099,-0.739014,9.637833,-19.199371,31.579971,20.439117,-24.821975,-78.166015,3
1608982,-0.33667,0.575928,-0.771728,-4.152298,-17.185211,22.058486,18.789123,-24.821975,-78.166015,3
1608983,-0.299561,0.604248,-0.739014,-15.993119,4.295349,14.795304,15.789124,-25.721984,-79.666015,3
1608984,-0.343994,0.573486,-0.710693,-5.983353,1.548767,11.133194,15.789124,-24.821975,-78.916015,3
1608985,-0.334717,0.564697,-0.755615,14.33754,-11.325837,18.213272,14.139115,-24.671981,-79.516021,3
1608986,-0.340576,0.596435,-0.744873,-5.311966,-11.264801,22.119522,11.589127,-24.821975,-79.216018,3
1608987,-0.230225,0.544189,-0.827881,5.670547,43.663024,-48.98262,15.039124,-26.471984,-79.966018,3
1608988,-0.277588,0.509033,-0.825928,18.48793,12.596131,-21.516799,22.23912,-27.221984,-76.666015,3
1608989,-0.267822,0.485596,-0.880127,15.802384,37.315368,-11.079789,24.48912,-28.421981,-76.366027,3
1608990,-0.325439,0.510986,-0.767334,3.290176,-8.213044,6.311417,25.23912,-28.871978,-75.166015,3
1608991,-0.25708,0.464111,-0.782471,19.159317,6.187439,-11.995316,23.439117,-27.671981,-75.616027,3
1608992,-0.276123,0.536865,-0.7854,14.947892,-3.08609,6.799698,26.439117,-30.071975,-72.916015,3
1608993,-0.280518,0.523193,-0.733154,-12.208939,-5.344391,10.156632,25.839126,-32.171981,-72.766021,3
1608994,-0.28833,0.461182,-0.838135,4.571915,17.784118,-8.760453,24.789123,-32.921981,-73.066024,3
1608995,-0.349365,0.484619,-0.861572,-7.143021,-16.696929,-4.915237,24.939117,-32.321975,-71.866027,3
1608996,-0.348877,0.532471,-0.896728,-22.89009,37.132263,-30.794143,28.389114,-31.571975,-72.166015,3
1608997,-0.291748,0.253662,-0.877685,23.981094,41.404724,-48.799514,29.889114,-29.171981,-73.366027,3
1608998,-0.268311,0.443603,-0.838623,-8.119584,0.144959,-21.028518,35.439117,-30.221984,-69.766021,3
1608999,-0.259521,0.284912,-0.823974,-3.358841,19.187927,-26.277542,34.98912,-29.771972,-71.266021,3
1609000,-0.291748,0.649658,-0.861084,-73.67134,12.596131,-17.183303,36.48912,-29.771972,-69.466018,3
1609001,-0.334717,0.558349,-0.923095,-8.302689,16.197204,-7.112503,38.289123,-22.571975,-71.416015,3
1609002,-0.313232,0.424072,-0.809326,28.253555,-10.105134,6.128311,39.189117,-23.921981,-70.816024,3
1609003,-0.287353,0.48706,-0.76001,5.365372,-12.851716,16.077041,40.23912,-23.921981,-68.716018,3
1609004,-0.240478,0.443603,-0.87622,-16.96968,-3.696442,-0.398636,36.639114,-27.221984,-69.916015,3
1609005,-0.342529,0.43042,-0.776611,-18.373489,-3.696442,3.87001,38.589126,-23.771972,-71.116027,3
1609006,-0.22583,0.203857,-0.801025,51.446914,13.877869,-22.615432,36.48912,-19.571975,-72.766021,3
1609007,-0.404541,0.533935,-0.960205,25.018692,-9.128571,7.65419,37.389114,-20.171981,-71.116027,3
1609008,-0.318115,0.475342,-0.866943,6.64711,-8.701325,0.207901,35.889114,-24.071975,-70.666015,3
1609009,-0.312744,-0.27832,-0.881714,-2.99263,-4.062653,5.7621,56.889114,-30.821975,-49.816024,3
1609010,-0.292725,-0.300781,-0.894897,-3.602982,4.53949,3.931046,57.789123,-31.421981,-49.666015,3
1609011,-0.333252,-0.331055,-0.86853,3.717422,-4.673004,4.297256,55.839126,-29.471984,-48.466018,3
1609012,-0.304932,-0.29834,-0.866089,6.158829,12.596131,-6.380081,57.039123,-31.421981,-50.416015,3
1609013,-0.286865,-0.318848,-0.921753,6.586075,5.638123,4.236221,55.839126,-33.671981,-50.416015,3
1609014,-0.335205,-0.287598,-0.896362,1.703262,0.144959,5.7621,56.589126,-33.671981,-48.166015,3
1609015,-0.309814,-0.276855,-0.894409,1.459122,1.182556,2.710342,56.439117,-35.471984,-49.066024,3
1609016,-0.330322,-0.290039,-0.912475,1.459122,1.609802,2.771378,57.189117,-33.971984,-48.766021,3
1609017,-0.317627,-0.288574,-0.910034,2.313614,0.87738,-0.276566,56.289123,-33.671981,-49.666015,3
1609018,-0.306885,-0.295898,-0.901733,-0.795364,1.731873,-1.680374,55.98912,-35.171981,-47.566024,3
1609019,-0.330322,-0.328613,-0.88269,5.853653,-4.550934,0.024796,55.089126,-35.321975,-47.716018,3
1609020,-0.299561,-0.296875,-0.886596,-1.22261,-1.438141,-2.10762,56.289123,-34.571975,-48.466018,3
1609021,-0.33374,-0.297852,-0.88855,-2.077103,-2.536774,-4.426956,56.289123,-34.571975,-47.716018,3
1609022,-0.344971,-0.283203,-0.9198,-6.89888,-1.07193,-3.633499,55.089126,-35.771972,-49.666015,3
1609023,-0.319092,-0.305664,-0.924194,-4.701614,-0.278473,-4.060745,55.539123,-33.671981,-49.216018,3
1609024,-0.300537,-0.280762,-0.890014,-5.067825,1.609802,0.757217,56.589126,-32.621978,-49.666015,3
1609025,-0.333252,-0.283203,-0.91394,-4.579544,0.328064,0.146866,55.98912,-31.571975,-51.016021,3
1609026,-0.35083,-0.265625,-0.895386,-1.405716,0.63324,11.072159,55.539123,-31.421981,-49.666015,3
1609027,-0.310791,-0.220703,-0.942261,-10.866166,7.102966,22.485733,55.089126,-32.921981,-48.466018,3
1609028,-0.299561,-0.282715,-0.932983,7.623672,16.929626,16.321182,56.289123,-32.921981,-49.216018,3
1609029,-0.320068,-0.256836,-0.89978,7.806778,1.670837,12.598038,56.289123,-32.921981,-48.916015,3
1609030,-0.233643,-0.106445,-0.956909,-37.965774,23.460388,26.575088,57.189117,-34.721984,-47.266021,3
1609031,-0.36206,-0.239258,-0.966186,-22.218704,0.205994,31.641006,57.189117,-34.271972,-48.766021,3
1609032,-0.281006,-0.227051,-0.93396,-1.527786,-6.259918,31.21376,55.98912,-34.271972,-48.316024,3
714850,-0.432861,-0.699463,-0.765625,56.459426,-33.210754,51.216125,-80.262512,8.56334,-17.253036,1
714851,-0.269775,-0.753662,-0.686523,45.778274,-14.656067,41.023254,-80.262512,10.513337,-18.453033,1
714852,-0.257568,-0.775146,-0.599609,13.795853,13.416291,39.68048,-80.262512,12.913346,-18.453033,1
714853,-0.251709,-0.723389,-0.513183,-17.816543,47.168731,23.628234,-81.162506,14.713334,-18.303039,1
714854,-0.310303,-0.56958,-0.628418,-98.871231,36.487579,22.224426,-77.5625,17.563339,-19.953033,1
714855,-0.316162,-0.658447,-0.664551,-100.580215,12.866974,9.223938,-78.762512,18.763336,-22.503036,1
714856,-0.329346,-0.641357,-0.833008,-82.208633,-5.256653,10.139466,-79.0625,19.963333,-22.203033,1
714857,-0.262939,-0.613037,-0.840332,-44.183731,8.289338,12.641907,-78.462509,21.313339,-18.603042,1
714858,-0.21167,-0.496338,-0.887207,-33.807754,33.008575,-0.659943,-79.0625,23.113342,-16.503036,1
714859,-0.205811,-0.457764,-0.92334,-15.008927,40.271759,7.820129,-78.462509,24.163345,-19.053039,1
714860,-0.224853,-0.448975,-0.902344,7.326126,20.069122,9.468079,-78.012512,23.863342,-20.253036,1
714861,-0.218506,-0.451904,-0.874512,15.382767,-3.913879,14.717103,-76.0625,24.763336,-20.703033,1
714862,-0.171143,-0.446533,-0.867187,9.401322,0.110626,13.557435,-77.5625,25.513336,-22.503036,1
714863,-0.19458,-0.412353,-0.868164,-9.393692,2.979279,11.909485,-77.712509,25.663345,-20.853042,1
714864,-0.24292,-0.471924,-0.866699,-8.478165,-7.759094,4.15802,-78.012512,26.713333,-21.453033,1
714865,-0.239014,-0.471435,-0.873535,-13.849259,-13.252259,-3.345489,-75.912506,27.613342,-21.90303,1
714866,-0.250244,-0.453369,-0.867187,-7.928848,-18.623352,-10.181427,-77.712509,27.313339,-22.65303,1
714867,-0.252197,-0.461182,-0.889648,-1.398087,-23.139953,-12.683869,-77.5625,27.013336,-19.203033,1
714868,-0.213623,-0.448975,-0.877441,3.358841,-15.63263,-7.312775,-78.762512,27.913345,-17.253036,1
714869,-0.21167,-0.443115,-0.884765,-1.459122,-11.970521,-4.444122,-78.762512,25.513336,-18.003036,1
714870,-0.24585,-0.434814,-0.859863,0.8564,-9.773255,-0.232697,-79.0625,24.763336,-14.703034,1
714871,-0.262451,-0.412353,-0.870117,-2.801895,-2.571106,1.350403,-78.012512,25.063339,-15.753037,1
714872,-0.261475,-0.447021,-0.86914,2.748489,0.354767,-1.514435,-77.412506,27.313339,-15.30304,1
714873,-0.263428,-0.439697,-0.86914,4.152298,-0.923157,-1.636505,-79.512512,26.713333,-16.203033,1
714874,-0.259521,-0.438232,-0.867676,3.541946,-0.740051,-0.843048,-78.912506,25.663345,-16.053039,1
714875,-0.258545,-0.448486,-0.86084,1.527786,-1.716614,1.777649,-78.762512,25.513336,-16.503036,1
714876,-0.253662,-0.463135,-0.849609,3.053665,-0.556946,-0.171661,-78.162506,25.213333,-16.803039,1
714877,-0.265869,-0.438232,-0.858887,-2.191544,-3.059387,-2.979279,-78.162506,25.213333,-15.603043,1
714878,-0.246338,-0.456299,-0.867676,12.269974,11.829377,2.571106,-79.512512,24.313339,-16.503036,1
714879,-0.196045,-0.480713,-0.880859,17.030715,28.980255,2.388,-78.762512,25.063339,-15.753037,1
714880,-0.239014,-0.455322,-0.874023,30.214309,19.031524,17.097473,-78.462509,25.663345,-18.603042,1
714881,-0.258057,-0.505615,-0.831543,45.473098,5.847931,41.4505,-78.3125,24.313339,-18.453033,1
714882,-0.192627,-0.469971,-0.877929,25.148391,24.646759,54.328918,-78.162506,25.663345,-21.15303,1
714883,-0.144775,-0.482178,-0.821289,27.040481,18.970489,71.174621,-76.512512,28.213333,-21.753036,1
714884,-0.178467,-0.540283,-0.811035,48.768997,25.37918,106.697082,-73.662506,31.963333,-26.40303,1
714885,-0.169189,-0.427978,-0.866699,-0.360489,24.829864,106.147766,-71.712509,35.863342,-26.103042,1
714886,-0.401123,-0.559814,-0.741211,35.463333,-23.078918,73.432922,-68.262512,40.963333,-28.353042,1
714887,-0.4729,-0.43335,-0.758301,31.496047,-70.014953,45.967102,-67.362503,40.813339,-29.553039,1
714888,-0.415283,-0.46167,-0.819824,12.941361,-46.150207,47.676086,-65.862503,42.463333,-29.553039,1
714889,-0.422119,-0.542724,-0.774414,15.687943,-20.210266,42.549133,-65.862503,45.913345,-27.303039,1
714890,-0.508545,-0.509521,-0.730957,-34.723281,-34.675598,-9.326935,-65.112503,45.913345,-25.203033,1
714891,-0.472412,-0.452392,-0.783691,-45.404434,-20.210266,-23.426055,-66.162506,47.863342,-24.453033,1
714892,-0.5354,-0.540283,-0.841308,-1.459122,-29.365539,6.111145,-66.612503,49.063339,-21.753036,1
714893,-0.436768,-0.447998,-0.734375,1.283646,-1.228333,14.961243,-68.412506,47.863342,-20.253036,1
714894,-0.516846,-0.388428,-0.709472,-4.022598,-12.336731,13.374329,-67.212509,47.713333,-20.103042,1
714895,-0.508057,-0.614502,-0.864258,80.751419,10.181427,26.252746,-66.912506,47.863342,-18.753036,1
714896,-0.344482,-0.405518,-0.804199,76.234817,90.503692,27.473449,-65.862503,49.963333,-22.203033,1
714897,-0.545654,-0.417236,-0.698242,38.820266,21.839141,21.125793,-65.112503,48.763336,-27.303039,1
714898,-0.626709,-0.413818,-0.632324,-17.755508,-31.074523,-8.716584,-63.3125,49.663345,-29.40303,1
714899,-0.467529,-0.568115,-0.662597,-37.958145,-25.764465,-28.369903,-64.0625,49.663345,-30.15303,1
714900,-0.547119,-0.463623,-0.652344,-80.438613,-30.708313,-41.614532,-65.5625,48.163345,-28.353042,1
714901,-0.493896,-0.518799,-0.663086,-46.564102,-15.876771,-12.989045,-66.912506,46.363342,-24.453033,1
714902,-0.497803,-0.565674,-0.731445,1.10054,-26.313781,-4.261017,-68.712509,47.713333,-21.603042,1
714903,-0.620849,-0.406982,-0.71582,-5.060196,-11.421204,-1.941681,-68.112503,48.313339,-21.003036,1
714904,-0.509033,-0.346435,-0.772949,-14.520646,15.125275,-9.998322,-69.462509,46.513336,-20.40303,1
714905,-0.469971,-0.529053,-0.880859,39.308547,20.435333,-12.195588,-68.412506,46.363342,-18.453033,1
714906,-0.540771,-0.405518,-0.711426,7.387161,-4.951477,-15.552521,-71.712509,46.963333,-20.103042,1
714907,-0.568115,-0.4646,-0.631348,-3.656387,-12.702942,-12.439728,-70.212509,45.313339,-20.103042,1
714908,-0.465088,-0.484619,-0.746582,13.063431,-10.749817,-0.354767,-69.462509,46.513336,-20.853042,1
714909,-0.399658,-0.39917,-0.590332,-37.103652,31.238555,-8.594513,-69.462509,44.563339,-21.15303,1
714910,-0.354248,-0.491455,-0.62207,-56.634902,38.074493,-18.665313,-70.962509,44.113342,-20.103042,1
714911,-0.507568,-0.601318,-0.882324,-26.971817,28.675079,-19.763946,-70.212509,45.763336,-20.853042,1
714912,-0.47876,-0.381103,-0.909179,-31.854629,36.426544,-34.046173,-70.512512,44.563339,-21.15303,1
714913,-0.459228,-0.457275,-0.882812,3.541946,10.913849,-26.294708,-72.612503,43.663345,-21.753036,1
714914,-0.342529,-0.421631,-0.860351,14.955521,20.313262,-41.614532,-71.262512,44.113342,-22.353042,1
714915,-0.376221,-0.421143,-0.783691,14.34517,36.121368,-37.464141,-72.912506,41.413345,-22.353042,1
714916,-0.282959,-0.357178,-0.751465,-23.859024,41.187286,-40.76004,-73.8125,38.113342,-25.803039,1
714917,-0.352783,-0.531006,-0.860351,-23.370742,16.834259,-35.449981,-73.8125,37.663345,-27.003036,1
714918,-0.428955,-0.467529,-0.827148,-46.991348,-39.863586,-5.908966,-75.762512,36.163345,-28.803039,1
714919,-0.281006,-0.357666,-0.615723,-51.63002,-14.411927,-14.759064,-74.5625,34.513336,-25.503036,1
714920,-0.122803,-0.62915,-1.084472,30.58052,28.858184,22.407531,-76.0625,35.263336,-24.453033,1
714921,-0.21167,-0.32251,-0.909179,1.22261,7.862091,16.12091,-74.862503,34.963333,-24.453033,1
714922,-0.37915,-0.506103,-0.883301,25.697708,-22.285461,5.073547,-75.762512,34.513336,-25.803039,1
714923,-0.29126,-0.399658,-0.855957,11.049271,-2.815247,2.571106,-74.112503,36.463333,-24.753036,1
714924,-0.287353,-0.463135,-0.820312,18.7397,0.232697,9.95636,-75.162506,35.113342,-24.15303,1
714925,-0.331299,-0.383545,-0.811035,-11.590958,-0.679016,18.013,-74.712509,35.863342,-24.90303,1
714926,-0.377685,-0.394775,-0.74414,-26.910781,-18.440246,0.312805,-73.8125,36.163345,-25.203033,1
714927,-0.30542,-0.532959,-0.963379,-14.45961,10.242463,-23.181915,-73.962509,37.063339,-23.853042,1
714928,-0.293213,-0.348389,-0.761719,-20.074844,17.627716,-11.951447,-75.162506,37.513336,-23.103042,1
714929,-0.304443,-0.529053,-0.979492,14.34517,-7.026672,-6.519318,-75.462509,37.063339,-23.40303,1
714930,-0.270752,-0.341064,-0.915039,6.105423,-0.495911,8.674622,-76.212509,36.313339,-24.15303,1
714931,-0.297119,-0.415771,-0.79248,0.917435,-7.026672,5.317688,-75.912506,34.663345,-23.40303,1
714932,-0.327881,-0.431885,-0.866211,-3.229141,-14.595032,4.03595,-75.3125,38.113342,-23.703033,1
714933,-0.331299,-0.409912,-0.817383,-12.994767,6.519318,-6.824493,-75.912506,36.763336,-23.40303,1
714934,-0.364014,-0.499267,-0.966797,19.105911,-8.613587,-4.261017,-76.0625,36.913345,-22.203033,1
7580,-0.182007,-0.373657,-0.908691,0.429153,-0.652313,0.314713,-11.148255,-42.88623,-9.256745,11
7581,-0.184937,-0.355591,-0.913086,2.077103,0.747681,0.009537,-10.848252,-42.88623,-9.706742,11
7582,-0.186401,-0.366333,-0.912109,-1.520157,-1.750946,2.145767,-11.148255,-43.63623,-7.006744,11
7583,-0.178101,-0.366821,-0.911621,0.062943,2.27356,2.695084,-10.248246,-42.286239,-7.906754,11
7584,-0.192749,-0.360474,-0.907226,1.344681,1.358032,0.497818,-11.448258,-42.586242,-7.156754,11
7585,-0.173706,-0.373169,-0.910156,-0.482559,-0.652313,-1.085281,-11.748246,-43.336242,-7.156754,11
7586,-0.18689,-0.380981,-0.909179,1.161575,-0.164032,-1.024246,-10.248246,-43.336242,-8.356751,11
7587,-0.176147,-0.351196,-0.909179,0.368118,-0.102997,-0.413895,-11.448258,-41.836242,-8.356751,11
7588,-0.18103,-0.379028,-0.905273,0.490189,0.137329,1.535416,-12.798249,-43.936233,-8.206742,11
7589,-0.164917,-0.359497,-0.900879,0.97847,2.456665,2.267838,-11.598252,-42.88623,-7.456741,11
7590,-0.175659,-0.374145,-0.912597,9.523392,9.353638,10.263443,-10.698258,-43.036239,-6.85675,11
7591,-0.210327,-0.370727,-0.923828,5.556107,3.677368,8.676529,-12.498246,-42.286239,-9.106751,11
7592,-0.175171,-0.343384,-1.005371,-53.277969,3.555298,33.945083,-13.848252,-41.236236,-8.506745,11
7593,-0.197144,-0.312134,-0.950195,0.795364,5.630493,19.723892,-16.698257,-41.38623,-13.606751,11
7594,-0.220581,-0.227661,-0.902832,-2.191544,20.401,67.270278,-15.348252,-40.036239,-13.006745,11
7595,-0.189331,-0.147095,-0.984863,-123.102188,9.414673,4.892349,-17.898254,-37.036239,-14.356751,11
7596,-0.203979,-0.211548,-0.927734,-87.518692,-5.168915,-28.123855,-19.248245,-36.13623,-20.056747,11
7597,-0.157593,-0.115845,-1.009277,-71.954727,7.278442,-21.165847,-19.998245,-33.436233,-21.556747,11
7598,-0.241089,0.02478,-0.94873,-59.198379,-6.328583,0.558853,-19.248245,-32.986236,-26.35675,11
7599,-0.188843,0.114624,-0.939453,-22.333145,-2.971649,71.298599,-18.948257,-32.38623,-28.756744,11
7600,-0.057007,0.217163,-1.190429,24.904251,48.599243,138.498306,-22.548248,-28.186233,-30.85675,11
7601,-0.188843,0.205933,-0.963379,13.612748,11.062623,36.996841,-24.948257,-24.286239,-31.60675,11
7602,-0.067749,0.193237,-0.933105,16.908645,4.776001,36.7527,-24.648254,-25.63623,-32.206741,11
7603,-0.067749,0.172729,-1.008301,3.725052,-0.286102,22.714614,-26.148254,-25.336242,-31.456741,11
7604,-0.051636,0.127808,-1.026855,22.157669,-0.774384,9.04274,-25.998245,-23.536239,-34.156738,11
7605,-0.036499,0.111694,-0.987793,-7.379532,0.686646,-4.991531,-27.198257,-25.936233,-31.306747,11
7606,-0.07605,0.079956,-0.964355,-2.130508,-4.375458,-2.733231,-26.148254,-24.13623,-32.956741,11
7607,-0.046753,0.116577,-0.949219,0.8564,-0.469208,-6.578445,-27.948257,-24.736236,-31.306747,11
7608,-0.049683,0.084351,-0.821289,-31.427383,-45.452117,-84.76448,-27.348251,-24.13623,-32.506744,11
7609,-0.057983,0.113647,-0.941406,-62.189102,54.885864,-81.956863,-27.048248,-27.586242,-31.756744,11
7610,-0.267944,0.053589,-1.359863,-5.731583,34.194946,-27.635574,-23.598251,-26.536239,-37.306747,11
7611,-0.346069,-0.047485,-1.207519,11.110306,-16.826629,9.592057,-21.498245,-28.63623,-39.256744,11
7612,-0.2323,-0.005981,-0.784668,86.915969,-22.747039,-24.827957,-22.248245,-29.836242,-38.206741,11
7613,0.192017,-0.06897,-0.469726,43.153762,37.429809,-39.964675,-23.748245,-32.986236,-36.706741,11
7614,0.056763,0.43103,-0.418945,430.116638,61.050415,104.135513,-25.098251,-53.686233,-30.256744,11
7615,-0.008667,1.393432,0.287598,-353.570922,43.655395,-37.340164,-31.098251,-69.736236,-7.60675,11
7616,-0.571655,0.297241,-3.982421,-876.15393,-301.494598,-34.410476,-30.798248,-72.88623,-14.656754,11
7617,-0.147827,-0.133911,-1.322265,490.236267,-57.353973,206.49147,-48.344345,-37.358215,-63.565048,11
7618,0.072388,-0.036255,-1.248047,675.355896,-92.998504,-123.82698,-57.194335,-48.608215,25.234924,11
7619,0.005981,0.032104,0.216797,-523.309692,-22.747039,-42.222976,-52.244338,-25.658203,51.334915,11
7620,-0.375366,-0.251587,-1.716797,-128.839492,130.569458,8.676529,-62.894348,-47.708206,4.384918,11
7621,-0.494995,-0.255005,-1.862304,46.022415,4.043579,89.914321,-60.794342,-46.808212,-13.315049,11
7622,-0.129272,-0.252563,-0.617676,129.152297,-44.53659,-37.340164,-74.144348,-29.858215,-12.565049,11
7623,-0.149292,0.240112,-0.296387,77.272415,-38.005828,-108.873367,-74.594345,-43.808212,-1.615051,11
7624,-0.206421,0.203003,-1.801757,-292.779907,-62.114715,-87.327957,-75.794342,-48.908203,3.184921,11
7625,-0.021362,-0.294067,-1.086914,103.700637,-8.342743,97.421646,-66.194335,-66.908203,-7.465042,11
7626,0.163696,-0.25647,-1.461914,30.58052,24.795532,24.118423,-63.644348,-70.658203,-3.865051,11
7627,-0.32312,-1.620727,-2.248535,654.970153,-16.826629,42.062759,-65.894348,-65.408203,-5.365051,11
7628,-0.501343,-1.777954,-3.326659,1045.595214,-119.121551,292.062744,-68.144348,-61.958206,11.734925,11
7629,-0.402222,-0.102661,-3.347167,204.957962,-316.143035,62.08229,-67.994339,-40.508209,39.184921,11
7630,-0.360229,0.175659,-0.731933,-402.460083,-96.599578,308.969482,-29.294342,-21.758209,67.684921,11
7631,-0.097534,0.625366,0.48291,-76.776504,108.474731,-58.763504,-25.094345,-13.958207,59.434921,11
7632,-0.456421,0.275269,-1.149414,-685.174926,-116.924285,497.079833,-23.594345,-24.458206,55.684921,11
7633,-1.156616,1.447143,-1.822265,362.306579,189.102172,-468.065246,-37.394348,-35.108215,36.034927,11
7634,-0.828491,0.547729,-0.994629,-86.969375,272.29309,-189.928054,-34.544342,-39.908203,37.534927,11
7635,0.275513,0.154663,-2.153808,-35.516738,-246.746063,54.819107,-19.544342,-56.558212,20.884918,11
7636,0.363403,-0.648071,-1.351562,146.547317,75.454711,63.119888,-17.744339,-59.408203,19.384918,11
7637,-0.214233,0.113159,-1.070312,-1.398087,11.97815,16.305923,-22.094345,-52.058212,29.284927,11
7638,-0.178101,-0.161743,-0.946777,-27.643203,-73.223114,-16.099929,-25.094345,-51.308212,30.484924,11
7639,0.617309,-0.112427,-1.435547,100.404739,87.661743,-12.376786,-22.394348,-48.608215,32.284927,11
7640,0.162231,-0.319458,-0.887207,-99.786758,38.467407,-59.617996,-18.944351,-51.758209,34.084915,11
7641,-0.027222,-0.633911,-0.780273,-58.404922,10.574341,9.836197,-17.894348,-52.058212,33.334915,11
7642,-0.080444,-0.595337,-0.830566,-50.958633,3.189087,-2.305984,-19.244338,-55.058212,26.884918,11
7643,0.108032,-0.40686,-0.966308,-133.356094,-25.371551,98.337173,-19.544342,-57.008209,21.334915,11
7644,0.112427,-0.218872,-0.961914,-86.542129,-37.334442,136.728286,-21.794342,-57.458206,16.084915,11
7645,-0.125366,-0.073364,-0.937988,-64.386367,12.588501,98.154068,-33.644348,-53.108215,9.784928,11
7646,-0.053589,0.005249,-0.988281,-50.897598,23.330688,120.920181,-37.844345,-50.108215,7.984924,11
7647,0.002563,0.026733,-1.072265,-76.349258,0.259399,84.421157,-42.044342,-46.958206,4.684921,11
9754,0.207397,-0.380493,-0.875,73.705673,-61.702728,60.03189,-16.137512,77.619201,-15.033692,11
9755,-0.272095,-0.031372,-0.905761,-173.78807,15.197754,47.885894,-7.137512,65.019195,-35.583694,11
9756,0.174194,-0.712524,-1.214355,-95.052719,-60.115814,-99.388122,-7.437515,78.069198,-29.583694,11
9757,0.026245,-0.199341,-0.849609,112.524032,35.217285,-104.515075,-23.637512,78.969192,-24.9337,11
9758,0.200561,0.165894,-0.655762,-42.196273,-20.259857,35.007476,-23.937515,50.319198,-46.983703,11
9759,-0.048462,-0.543091,-0.997558,-25.899887,17.456054,144.626617,-18.087509,78.069198,-40.083694,11
9760,0.054077,-0.312622,-0.947754,152.257919,-90.206146,230.625152,2.462463,81.969192,-45.9337,11
9761,0.120972,0.031616,-1.101074,244.60411,-98.934173,49.228668,7.112457,77.469192,-49.233703,11
9762,-0.121704,0.075073,-0.738769,-94.442367,128.784179,11.020661,8.162461,44.919204,-66.9337,11
9763,-0.36145,-0.154419,-1.724609,-270.101562,47.11914,-120.628356,15.512467,39.969192,-69.633697,11
9764,-0.024536,-0.516235,-1.200683,-182.271957,1.220703,-134.361267,27.062454,53.169204,-67.233703,11
9765,0.143433,-0.418091,-1.049316,195.653915,69.824218,-199.363708,19.712463,71.169204,-58.533691,11
9766,-0.030884,-0.088989,-1.018554,340.18518,125.24414,-124.412536,20.762466,64.419204,-62.133697,11
9767,-0.362915,0.151733,-0.350586,6.139755,-72.078704,-101.097106,37.562454,21.069198,-67.083694,11
9768,0.003296,-0.611938,-0.975586,-60.38475,16.174316,140.659332,17.612457,58.269195,-72.483703,11
9769,-0.050415,-0.380005,-1.065918,168.127059,-36.251068,198.825836,24.362457,75.669204,-64.233703,11
9770,-0.005981,-0.110474,-1.089355,340.673461,-111.44638,12.180329,28.562454,66.969192,-66.1837,11
9771,0.229858,0.21814,-0.659668,-24.007797,51.14746,49.716949,22.262466,15.969193,-76.383697,11
9772,0.119507,-0.383423,-1.374511,-95.41893,37.536621,-106.773376,35.012466,26.469192,-74.283691,11
9773,0.172241,-0.637329,-0.822754,98.0587,62.5,-129.112243,35.462463,42.969192,-69.033691,11
9774,0.020874,0.037476,-0.810547,264.806762,97.412109,57.590484,39.66246,22.869201,-61.6837,11
9775,-0.116821,0.172241,-1.061523,72.60704,-30.025482,-83.335876,42.812454,9.519196,-58.083694,11
9776,0.191772,-0.381958,-1.347168,-80.404281,-38.387298,88.291168,36.062454,9.819199,-60.033691,11
9777,0.176636,-0.230102,-1.125,78.52745,57.006835,118.50357,30.062454,16.569198,-60.483703,11
9778,0.080444,-0.129028,-0.94873,110.937118,29.907226,110.874176,30.362457,9.069199,-57.333694,11
9779,0.040894,-0.023071,-0.862793,106.115341,-3.536224,43.857574,32.462463,-4.580765,-51.1837,11
9780,0.092163,-0.430298,-1.132324,-68.868637,-10.616303,-7.408142,31.262466,-7.280762,-48.9337,11
9781,0.305054,-0.871216,-1.191406,91.161727,61.828613,79.807281,32.762466,-11.630768,-48.633697,11
9782,0.094604,-0.963989,-1.279297,329.137817,155.090332,109.714508,33.66246,-19.730773,-44.283691,11
9783,-0.157349,-1.244751,-1.356933,215.734481,-51.265716,184.848785,36.512466,-28.880767,-33.333694,11
9784,-0.084595,-0.067017,-0.28418,154.76036,72.265625,130.588531,18.212463,-41.330764,-14.133698,11
9785,-0.680786,-1.808227,-1.124023,65.038681,70.129394,-208.885192,14.912461,-28.580764,-14.283692,11
9786,-0.026978,-0.133911,0.188965,84.20372,-49.861907,-46.348571,16.862457,-14.780762,-26.283691,11
9787,-0.335571,-2.285278,-0.53418,-152.547836,127.197265,-15.525818,20.612457,-13.580765,-21.033691,11
9788,-0.598755,-0.450317,-1.238281,-270.101562,63.598632,-27.549743,23.91246,-2.330765,-25.383697,11
9789,-0.115845,0.168823,0.053223,468.725219,83.496093,-76.927185,27.512466,34.719192,-11.733704,11
9790,0.193726,0.148804,-1.852539,-383.932128,-72.933197,-73.265075,33.962463,10.419205,-4.683701,11
9791,0.271362,-0.593384,-1.861816,-351.705566,-113.521575,-49.156188,32.762466,13.869202,-6.483704,11
9792,0.021851,-0.536255,-0.76709,419.286743,80.688476,-141.197204,27.962463,32.169204,-7.383698,11
9793,0.026733,0.146851,-0.875976,224.706649,67.321777,-19.065856,27.812454,28.869201,-6.183701,11
9794,-0.223267,-0.372192,-0.847168,-52.57225,-165.584564,-177.452087,24.362457,-22.580764,18.716262,11
9795,-0.037231,-0.610474,-0.768555,-26.510238,-58.040618,-140.037536,26.762466,-20.630767,18.266265,11
9796,0.238647,-0.02063,-1.296386,-183.126449,-220.882415,-49.217224,37.262466,-15.530762,11.216263,11
9797,0.452026,-0.126099,-1.474121,-231.222152,-60.176849,29.392242,35.612457,-8.630768,1.316269,11
9798,-0.008423,-0.592895,-1,-18.331527,-7.381439,-66.917419,43.712463,4.569199,3.116272,11
9799,0.088257,-0.325317,-0.802246,22.924423,-21.419525,-46.226501,44.612457,8.019196,4.166275,11
9800,0.023804,-0.282837,-0.757324,-70.21141,-24.044036,-33.226013,40.862457,8.619202,2.816269,11
9801,-0.006958,-0.433227,-1.038086,-27.059555,-4.329681,-5.638123,42.062454,15.219193,1.316269,11
9802,0.152222,-0.198853,-1.054687,-25.35057,36.132812,32.016754,39.812454,15.969193,2.516266,11
9803,0.081421,-0.299927,-0.92041,8.153916,38.146972,61.985015,40.41246,15.819199,5.966263,11
9804,0.188843,-0.087524,-0.785156,-103.902816,86.791992,243.686676,36.362457,4.269196,9.866272,11
9805,-0.09436,-0.09729,-0.945801,-76.681137,185.913085,133.029937,31.262466,-1.430771,10.466263,11
9806,-0.177856,-0.177856,-1.572265,-97.982406,113.952636,121.067047,31.862457,-2.780762,11.066269,11
9807,0.333374,-0.392212,-0.975586,-15.829087,-48.94638,95.798492,30.362457,-5.180771,11.816269,11
9808,0.22937,-0.203735,-0.899414,-61.361312,41.442871,124.17984,19.712463,-12.230774,15.866272,11
9809,0.370483,-0.311645,-0.943359,38.061141,42.602539,147.373199,14.312455,-14.180771,12.566269,11
9810,0.423218,-0.31604,-0.957031,33.971786,91.613769,140.415191,11.312455,-15.380768,15.116272,11
9811,-0.067993,0.041382,-0.274902,-54.342269,-3.8414,63.205719,2.012466,-13.580765,14.216263,11
9812,-0.358032,-0.31897,-2.057128,-243.246078,136.352539,-2.403259,-3.237503,-14.330765,8.666276,11
9813,-0.295044,-0.255005,-1.348632,-26.021957,-105.342865,-7.347107,-0.837509,-11.480774,2.816269,11
9814,0.047241,-0.243286,-0.971191,90.612411,-130.97763,48.862457,-3.237503,-8.780762,-0.633698,11
9815,0.153198,-0.014771,-0.793457,103.73497,34.667968,14.621735,-9.387513,-11.180771,8.216263,11
9816,-0.00647,-0.049927,-0.930664,40.746688,47.607421,-69.236755,-9.237504,-13.430771,10.316269,11
9817,-0.150513,-0.209106,-0.944336,-143.941879,-61.885833,-20.591735,-0.237503,-15.530762,7.166275,11
157,0.153809,-0.803711,-0.435059,105.825424,11.795044,8.508683,-15.212311,-0.429016,90.156112,8
1827,-0.253418,-0.36792,-1.054565,18.493652,6.212234,31.415939,20.722915,-75.474609,44.021438,8
1828,-0.181152,-0.36499,-0.807007,70.800781,-28.69606,34.162521,20.422912,-75.624618,43.571441,8
1829,-0.131348,-0.185303,-0.937866,64.331054,-1.413345,10.480881,16.822906,-71.424621,48.97145,8
1830,-0.157227,-0.16626,-0.847534,23.254394,-6.784439,-16.126632,15.772904,-69.924621,55.421447,8
1831,-0.158203,-0.246338,-0.802124,39.916992,12.437821,-7.45964,15.472916,-66.324615,58.571441,8
1832,-0.204102,-0.252197,-0.871948,-12.813569,41.9178,-11.854172,15.772904,-66.474609,59.771438,8
1833,-0.304199,-0.386475,-1.093139,-54.256439,9.813309,-11.976243,16.072906,-63.474609,61.871444,8
1834,-0.208984,-0.572998,-0.860718,21.850585,-20.456314,-60.25505,15.322907,-65.274612,57.671447,8
1835,-0.206543,-0.444092,-0.97644,26.855468,-31.198501,-63.673019,17.422912,-65.874618,57.821441,8
1836,-0.111328,-0.314697,-0.875854,32.958984,-19.784927,-108.228683,20.122909,-63.474609,58.72145,8
1837,-0.143555,-0.324951,-0.929565,8.605958,6.51741,-98.951339,30.922912,-57.324615,62.171447,8
1838,-0.054199,-0.426514,-0.818237,75.439453,2.977371,-27.601242,42.172912,-42.024612,69.671447,8
1839,0.028809,-0.450439,-0.809448,73.059082,6.883621,-2.820969,43.522903,-37.524612,70.571441,8
1840,0.100098,-0.675049,-0.658569,106.750488,9.93538,23.542404,39.922912,-26.124618,77.171447,8
1841,0.100098,-0.584228,-0.766479,52.001953,5.723953,13.471604,38.272903,-19.824615,80.47145,8
1842,0.091309,-0.837646,-0.613159,115.051269,36.851882,-11.12175,34.222915,-11.424622,83.47145,8
1843,0.087891,-0.78833,-0.539429,115.29541,38.988113,-2.027512,34.522903,-7.674622,84.071441,8
1844,-0.048828,-0.776123,-0.40564,96.435546,0.35286,-12.403489,31.522903,-2.424622,86.47145,8
1845,0.019531,-0.834228,-0.345093,56.274414,-2.145767,-8.619309,27.772903,6.725357,86.47145,8
1846,0.069336,-0.964111,-0.394897,49.01123,-10.751725,3.278732,29.122909,10.325348,84.071441,8
1847,0.071289,-0.863037,-0.355835,36.437988,-9.286881,8.955002,29.872909,13.775345,84.821441,8
1848,0.094238,-0.905029,-0.315796,21.606445,-7.02858,2.607346,31.072906,16.62535,84.371444,8
1849,0.083984,-0.954834,-0.26355,3.234863,-1.718521,6.391525,29.272903,14.675354,83.621444,8
1850,0.023437,-1.010986,-0.207886,32.165527,-25.03395,5.353928,29.572906,17.075347,84.671447,8
1851,0.0625,-0.945556,-0.227417,18.432617,-31.686782,0.471115,31.672912,17.225357,83.021438,8
1852,0.034668,-0.95874,-0.191284,28.564453,-54.086685,-4.285812,31.522903,19.325347,82.121444,8
1853,0.074707,-0.956299,-0.182983,22.460937,-43.710708,-19.727706,35.872909,21.275344,79.271438,8
1854,0.106934,-0.92456,-0.239136,26.611328,-29.306411,-14.478684,38.872909,23.675354,76.571441,8
1855,0.058105,-0.954345,-0.143433,19.836425,-31.747818,-18.384933,39.472915,23.075347,76.421447,8
1856,0.140625,-0.966553,-0.200073,9.216309,1.390457,-6.849289,42.472915,25.775344,75.671447,8
1857,-0.01123,-0.931885,-0.254761,-17.81845,-5.075455,13.715745,39.472915,27.725357,73.121444,8
1858,0.012207,-1.060302,-0.094116,12.634278,-21.799087,9.443284,41.272903,26.975357,73.871444,8
1859,-0.026855,-0.997803,-0.096069,16.906738,7.921219,11.88469,40.972915,26.225357,72.821441,8
1860,0.02002,-0.902099,-0.139526,-4.207611,4.991531,11.88469,40.522903,26.975357,71.621444,8
1861,0.01123,-0.935791,-0.091187,-2.010345,10.911942,10.297776,41.722915,25.775344,73.121444,8
1862,-0.025391,-0.92749,-0.126343,-6.710052,-3.915787,-1.050949,39.622909,27.87535,74.021438,8
1863,0.050293,-0.989013,-0.148315,-3.59726,9.813309,-0.745773,39.622909,27.12535,72.97145,8
1864,0,-1.026123,-0.140991,5.432129,-9.592057,-0.684738,40.222915,27.275344,74.621444,8
1865,0.037598,-0.995849,-0.119995,8.544922,-0.802994,-0.501633,39.472915,26.975357,73.421447,8
1866,0.05957,-0.934814,-0.136108,-4.390717,7.799149,-0.623703,40.072906,27.12535,72.521438,8
1867,0.043945,-0.984131,-0.113159,2.746582,5.418777,-1.050949,40.072906,26.825347,74.321441,8
1868,0.072754,-1.029052,-0.106812,-0.545502,7.127762,0.715256,39.622909,27.87535,74.321441,8
1869,0.005859,-0.947021,-0.098022,-5.977631,-3.061295,-2.088547,40.222915,28.925354,73.871444,8
1870,0.024902,-0.998291,-0.115112,-3.59726,-3.305435,0.776291,40.222915,26.975357,73.871444,8
1871,0.032227,-1.043701,-0.114136,6.530762,2.305984,-1.53923,39.622909,28.325347,74.771438,8
1872,0.013184,-0.973388,-0.108276,4.211426,-6.174088,-3.004074,40.072906,26.825347,73.72145,8
1873,0.033203,-0.959228,-0.105347,-0.362396,-19.357681,-6.544113,40.222915,29.975357,73.871444,8
1874,-0.009766,-0.966553,-0.10437,-8.663178,-41.757583,-13.13591,41.722915,29.225357,73.871444,8
1875,0.067871,-1.006103,-0.128784,-21.053314,-29.306411,-13.319016,42.022903,28.925354,71.021438,8
1876,0.06543,-0.9729,-0.133667,-9.761811,-16.427993,-10.633469,46.072906,27.725357,70.571441,8
1877,0.136719,-1.048584,-0.200561,2.13623,0.71907,-7.764816,45.472915,28.62535,69.671447,8
1878,0.018555,-0.92749,-0.153687,-5.916595,-15.207291,-10.99968,45.172912,31.025344,69.371444,8
1879,0.076172,-0.943115,-0.180542,-4.268646,3.526688,-2.882004,45.472915,27.87535,69.671447,8
1880,0.046387,-0.983642,-0.179077,-6.649017,-3.000259,4.4384,47.422912,27.87535,69.671447,8
1881,0.119629,-0.952881,-0.175171,-21.663665,17.137527,-3.492355,45.172912,27.12535,71.171447,8
1882,0.07959,-1.08374,-0.16687,5.92041,5.540848,-2.332687,44.422912,26.37535,71.47145,8
1883,0.116211,-0.966064,-0.188843,8.789063,21.471023,-1.234055,44.572906,27.725357,71.621444,8
1884,0.102051,-0.988525,-0.180542,9.948731,27.818679,3.583908,42.472915,28.925354,73.871444,8
1885,0.124023,-0.988525,-0.159058,8.361817,31.541824,7.734299,43.372909,28.62535,72.97145,8
1886,0.114258,-0.944092,-0.157593,-6.649017,32.884597,8.832932,41.272903,28.925354,72.821441,8
1887,0.066895,-0.999267,-0.132202,0.671387,18.785476,9.260178,40.072906,29.37535,75.071441,8
1888,0.115234,-0.986572,-0.145386,-3.8414,34.715652,17.560958,39.172912,27.725357,75.97145,8
1889,0.088867,-0.993408,-0.129272,-3.353119,35.448074,15.058518,36.622909,26.975357,75.671447,8
1890,0.112793,-1.059326,-0.146362,7.446289,35.692214,9.565354,36.172912,26.975357,77.771438,8
1891,0.0625,-0.966553,-0.129272,6.225586,5.052567,13.471604,32.872909,28.175354,77.47145,8
1892,0.062012,-0.991455,-0.141968,11.47461,4.808426,5.170822,34.372909,28.175354,77.771438,8
1893,0.063477,-1.05249,-0.140503,29.418945,-2.450943,11.213303,33.322906,26.525344,78.22145,8
1894,0.014648,-0.990478,-0.139526,26.428222,-0.253677,12.983323,33.322906,28.175354,78.22145,8
1895,0.051758,-0.911865,-0.10437,-4.940033,7.371902,6.33049,34.072906,28.925354,77.771438,8
1896,0.068848,-0.987549,-0.088257,-30.879974,6.456375,7.490158,32.422912,27.87535,78.071441,8
1897,-0.007324,-1.014404,-0.130249,-10.005951,-11.423111,9.9926,33.022903,26.825347,77.321441,8
1898,0.060059,-1.006592,-0.164429,-9.3956,6.51741,-0.745773,32.872909,25.025344,78.22145,8
1899,-0.012207,-0.995849,-0.151733,6.591797,-3.2444,-3.858566,32.722915,23.37535,78.671447,8
1900,0.023926,-0.97583,-0.13855,12.634278,-1.962662,-2.637863,34.072906,23.525344,76.72145,8
1901,0.02832,-0.983642,-0.139526,3.601074,6.27327,-7.45964,33.472915,24.12535,77.321441,8
1902,-0.004883,-0.970459,-0.128784,-0.789642,3.526688,-0.257492,35.122909,25.475357,77.171447,8
1903,0.013184,-1.036865,-0.114624,8.789063,3.465652,-0.867844,33.322906,24.725357,78.22145,8
1904,0.049805,-0.996338,-0.109741,7.202148,5.235672,0.043869,33.622909,26.225357,78.97145,8
1905,0.016113,-0.989502,-0.124878,3.662109,0.108719,3.034592,32.722915,25.175354,77.621444,8
1906,0.004395,-1.07251,-0.091187,13.061524,-11.972428,-1.173019,33.472915,26.075347,78.671447,8
1907,0.070801,-0.953857,-0.139526,10.009766,5.357742,3.339767,32.122909,26.225357,77.771438,8
1908,0.03125,-1.016357,-0.083374,18.859863,11.156083,1.386642,33.022903,30.275344,75.521438,8
1909,0.016113,-0.992431,-0.078491,17.578125,15.916825,-7.276535,33.022903,30.575347,75.821441,8
1910,0.028809,-0.992431,-0.052612,23.620605,7.493973,-3.614426,32.572906,33.12535,75.97145,8
1911,-0.026855,-0.994873,-0.028687,7.385254,-6.723404,-1.050949,30.472915,34.025344,75.821441,8
1912,0.086426,-0.980713,-0.053589,-1.766205,13.048172,-6.666183,31.672912,34.775344,75.521438,8
1913,0.013184,-1.010986,-0.024292,0.244141,0.291824,-4.713058,30.322906,33.12535,76.421447,8
1914,0.010742,-0.994385,-0.035522,-4.512787,-0.558853,-2.271652,28.822906,33.12535,75.671447,8
1915,0.048828,-1.014892,-0.032593,4.02832,-4.098892,-1.966476,29.872909,34.775344,76.871444,8
1916,0.038086,-1.016357,-0.018433,5.065918,-0.558853,-0.928879,31.522903,34.62535,77.171447,8
1917,0.030762,-0.998291,-0.00769,2.868652,-5.746841,3.705978,30.922912,33.275344,74.321441,8
1918,0.07373,-0.999756,-0.011597,-2.193451,2.977371,2.30217,30.322906,32.675354,75.371444,8
1919,0.025391,-1.02417,-0.022339,3.540039,1.756668,0.593185,30.172912,32.525344,76.271438,8
1920,0.032227,-1.003174,-0.01355,7.019043,5.968094,2.668381,31.222915,32.825347,77.621444,8
1921,0.007324,-0.969482,-0.002319,-1.70517,-6.052017,1.142502,30.472915,34.025344,74.771438,8
1922,0.066895,-1.03247,-0.011597,1.708984,6.51741,1.691818,30.172912,33.575347,74.771438,8
1923,0.019531,-1.006592,0.016235,6.896973,-5.25856,5.720139,28.522903,34.175354,75.97145,8
1924,0.020508,-0.994873,-0.005249,5.92041,-1.291275,1.691818,32.422912,33.575347,75.071441,8
1925,0.001953,-1.044189,0.030396,3.479004,-2.573013,0.349045,30.322906,36.12535,74.921447,8
1926,0.022461,-1.00415,0.016724,-1.70517,-4.770279,-0.989914,31.072906,34.62535,76.421447,8
1927,0.006348,-0.978271,-0.016968,-0.179291,-0.009537,-4.590988,30.172912,36.275344,74.771438,8
1928,0.004883,-1.028564,0.018188,-0.728607,-6.662369,2.241135,30.322906,35.37535,76.72145,8
1929,0.066895,-1.000732,-0.010132,-5.61142,9.691239,-3.553391,30.172912,36.275344,75.521438,8
1930,0.011719,-1.012939,0.016235,-2.864838,-2.084732,-1.234055,31.072906,33.87535,73.871444,8
1931,0.028809,-1.009033,0.009399,0.244141,-6.052017,4.133224,30.322906,34.62535,76.421447,8
1932,0.05957,-1.007568,-0.020386,-1.461029,5.662918,1.203537,31.072906,35.825347,74.921447,8
1933,0.022461,-1.033935,0.010864,0.183105,1.939774,-0.562668,30.922912,34.475357,75.821441,8
1934,0.016113,-1.015381,-0.005737,0.244141,5.357742,1.813889,30.922912,34.775344,73.72145,8
1935,0.054687,-1.008545,0.008911,-1.888275,0.841141,1.203537,28.672912,35.525344,75.071441,8
1936,0.04248,-1.030029,0.008423,-0.423431,8.348465,0.41008,29.872909,34.775344,75.821441,8
1937,0.025879,-1.005127,0.004517,-0.545502,6.090164,-1.173019,30.172912,35.975357,77.321441,8
1938,0.060547,-0.999756,-0.005737,0.549316,3.099442,0.593185,29.422912,34.775344,75.821441,8
1939,-0.007813,-1.010986,0.00354,-0.545502,-2.450943,1.447678,30.472915,34.775344,75.071441,8
1940,0.017578,-1.012451,-0.01062,3.051758,-3.000259,1.935959,31.522903,34.175354,74.921447,8
1941,0.012207,-0.998291,-0.020874,6.896973,-1.291275,1.142502,29.122909,34.025344,75.071441,8
1942,0.075195,-0.991943,-0.022827,4.272461,8.04329,-0.379562,31.222915,35.525344,75.821441,8
1943,0.02832,-1.027588,0.029419,3.78418,7.921219,-2.454758,29.272903,36.12535,76.72145,8
1944,0.01416,-0.990967,0.011353,10.131836,-0.619888,0.165939,30.772903,36.575347,75.671447,8
1945,0.076172,-1.073974,0.029419,19.89746,17.503738,-3.797531,30.322906,37.62535,75.97145,8
1946,0.004883,-0.991455,0.006958,8.178711,-0.375748,-0.013351,28.372909,35.975357,75.071441,8
1947,0.010742,-1.002197,0.074341,18.859863,-4.098892,0.043869,26.722915,37.325347,75.371444,8
1948,0.029785,-1.023681,0.008423,10.864258,-1.35231,-2.576828,28.222915,39.575347,73.871444,8
1949,0.02002,-0.906494,-0.004761,3.845215,0.963211,0.776291,27.622909,38.675354,75.071441,8
1950,0.027832,-1.011963,0.069946,9.094239,-6.357193,1.203537,28.822906,36.575347,73.871444,8
1951,0.065918,-0.959228,0.029419,0.061035,1.756668,-3.370285,28.522903,38.37535,73.421447,8
1952,0.003906,-1.019287,0.062134,2.380371,-4.770279,2.241135,27.922912,38.225357,73.72145,8
1953,0.044922,-0.962646,0.045044,3.662109,2.428055,-4.102707,27.172912,38.975357,74.771438,8
1954,0.024414,-0.998291,0.058716,2.075195,-1.535416,2.058029,28.672912,38.975357,74.771438,8
1955,0.002441,-0.984131,0.067505,-0.05722,-2.267838,-3.43132,27.172912,38.225357,74.771438,8
1956,0.054199,-1.010986,0.028442,-1.70517,4.259109,-0.623703,26.872909,39.425354,74.021438,8
1957,0.032715,-0.997314,0.090454,7.69043,-1.718521,-2.210617,28.672912,38.675354,74.321441,8
1958,0.057129,-1.048095,0.047974,-0.118256,5.907059,3.889084,27.622909,38.975357,74.321441,8
1959,0.016113,-0.999756,0.033813,9.46045,-0.131607,-3.004074,28.522903,41.075347,74.921447,8
1960,0.069824,-1.002197,0.096313,-2.071381,3.160477,-2.027512,27.172912,40.475357,72.521438,8
1961,0.030762,-1.081299,0.158813,2.258301,3.038406,0.165939,27.922912,39.425354,74.771438,8
1962,0.044922,-1.008545,0.08606,3.173828,0.35286,-1.661301,28.222915,41.525344,73.421447,8
1963,0.033691,-0.970459,0.09729,-3.170013,-3.36647,-1.600266,27.622909,39.425354,74.321441,8
1964,0.068848,-1.077392,0.081177,2.13623,-0.986099,-2.576828,26.722915,41.075347,72.821441,8
1965,0.049316,-0.910888,0.065063,-3.902435,-8.554459,-0.318527,27.772903,39.12535,74.621444,8
9827,-0.17981,-0.084106,-0.585937,271.703735,-65.975189,-88.462829,-22.441604,58.993606,-40.114166,7
9828,0.603882,-0.163208,-1.497558,-445.943847,-112.911224,55.942535,-32.641601,34.843612,-45.51416,7
9829,-0.146118,-0.269653,-1.068359,48.559188,-58.040618,240.756988,-26.79161,76.393615,-34.564163,7
9830,0.21814,-0.519653,-1.04541,116.552352,-158.565521,169.28482,-21.241607,79.543609,-35.614166,7
9831,-0.020142,0.140991,-1.134765,250.890731,136.474609,-57.334899,-16.741607,67.993606,-45.664169,7
9832,-0.146606,0.242065,-0.764648,7.84874,45.898437,5.771637,-12.091614,58.243606,-54.664169,7
9833,-0.201294,-0.505981,-1.185058,200.170516,-64.32724,-243.614196,-13.291611,51.493606,-59.164169,7
9834,-0.386841,-0.738403,-1.339843,313.024536,-187.129974,-356.040954,-25.441604,3.79361,-50.314163,7
9835,-0.499634,-0.271606,-1.050293,317.052856,-193.5997,-419.395446,-29.191604,-10.306351,-40.714172,7
9836,-0.264282,0.207397,-0.741699,38.244247,-475.887298,-89.378356,-15.691605,-46.156356,-0.664169,7
9837,0.250366,-0.808716,-1.571777,66.991806,-155.330657,-109.031677,9.658356,-52.906356,32.935806,7
9838,0.207886,-0.287231,-1.170898,201.025009,8.544922,-59.776306,21.058364,-52.456359,28.435806,7
9839,-0.291138,-0.309692,-0.569824,116.003036,-87.093353,-67.771911,25.408355,-44.05635,48.0858,7
9840,0.040894,0.065796,-0.437988,-12.105942,-144.527435,-100.914001,28.708358,-41.506347,50.485794,7
9841,-0.172974,-0.65979,-1.0625,-34.811019,39.611816,76.267242,36.508361,-39.706359,36.0858,7
9842,0.132202,-0.607056,-0.768555,75.231552,-158.992767,258.029937,27.508361,-42.706359,29.185806,7
9843,0.384155,-0.525513,-0.662597,158.117294,-82.149505,90.488433,18.808364,-43.456359,31.885803,7
9844,0.067261,0.078979,-0.692383,123.876571,154.174804,67.356109,4.408356,-39.106353,43.735794,7
9845,-0.149048,-0.731567,-1.878906,-442.342773,-145.015716,-71.678161,-6.541611,-34.756347,46.285797,7
9846,-0.095825,-0.765259,-1.210937,-17.232894,61.523437,97.08023,26.458358,-48.106353,26.635803,7
9847,-0.078247,-0.324829,-0.776855,58.87413,-43.697357,139.499664,24.508361,-49.756347,21.8358,7
9848,0.008179,-0.382935,-0.901855,69.067001,-77.327728,267.795562,17.758361,-52.456359,24.685806,7
9849,0.424683,-0.310669,-1.01709,180.21202,34.057617,55.820465,-5.341614,-51.856353,37.285797,7
9850,-0.258423,-0.464966,-1.57373,-350.729003,-37.715911,-12.290955,-24.841613,-44.206359,49.285797,7
9851,0.171265,-1.003051,-0.950683,-60.445785,-79.402923,-99.876403,-22.891616,-46.906356,38.935806,7
9852,0.152222,-0.277466,-0.976562,54.601669,57.067871,-139.793396,-17.191604,-53.206359,34.435806,7
9853,0.070679,-0.418579,-0.893066,35.375595,57.434082,-224.449157,-13.291611,-53.05635,37.5858,7
9854,0.211792,-0.654907,-1.144043,-113.607406,18.615722,49.045562,0.058365,-46.006347,70.435806,7
9855,0.380249,-0.432251,-1.199707,203.954696,54.382324,207.065582,-8.641617,-49.906356,62.635803,7
9856,0.423706,-0.549438,-1.132812,253.698349,75.805664,247.348785,-17.641616,-41.80635,69.535797,7
9857,0.358765,-0.496704,-0.860351,399.938598,187.133789,279.148101,-38.79161,-7.156357,82.135803,7
9858,0.012085,-0.09436,-0.663086,292.638793,260.681152,233.493804,-49.141601,28.243606,77.035797,7
9859,-0.289185,-0.725708,-1.472656,-215.475082,737.670898,107.944488,-53.941604,50.593612,55.285797,7
9860,-0.629028,-0.996704,-1.02539,-110.616683,511.596679,156.711578,-58.891601,48.943618,15.835801,7
9861,-0.46936,-0.738403,-0.77832,-119.588851,233.764648,93.296051,-48.991607,54.943618,-3.364166,7
9862,0.184448,-0.607056,-0.705566,-19.857406,-19.283294,111.667633,-26.191604,63.493606,-16.414169,7
9863,-0.329224,-0.630981,-0.649414,-144.369125,59.082031,54.294586,-9.841614,69.643615,-18.51416,7
9864,-0.5177,-0.672485,-1.02832,-47.079086,-74.39804,-40.855407,2.158356,76.993606,-15.364167,7
9865,0.120483,-0.611938,-0.908691,135.22911,-98.140716,-36.888122,-4.891617,76.393615,-11.464173,7
9866,0.003296,-0.09729,-0.546387,153.417587,-9.63974,26.828765,-14.941605,70.693618,-12.364167,7
9867,-0.427856,-0.804809,-1.160156,200.719833,217.773437,224.216461,1.558365,74.743606,-8.464173,7
9868,-0.220337,-0.279907,-1.049316,316.198364,25.329589,61.252594,12.508362,75.493606,-12.514161,7
9869,0.196655,-0.123657,-0.354492,-89.254379,64.7583,6.320953,19.258361,52.093612,-28.714172,7
9870,-0.54895,-0.36731,-1.513672,-330.587402,38.757324,35.434722,20.908355,51.943618,-29.76416,7
9871,0.132202,-0.399048,-0.948242,93.542099,-8.602143,-198.20404,7.558365,75.493606,-13.264161,7
9872,-0.314575,-0.012817,-0.658203,201.879501,3.540039,-96.824646,-10.591614,66.943618,-22.26416,7
9873,-0.122192,0.099487,-0.51416,-88.888168,-172.05429,-76.377868,-12.991608,50.893615,-34.414169,7
9874,0.456909,-0.18811,-2.03125,-360.006347,-132.86972,-30.784606,-18.991607,48.343612,-34.114166,7
9875,-0.103149,-0.379028,-0.937988,37.145614,66.40625,145.420074,-29.191604,72.643615,-16.114166,7
9876,-0.153442,-0.160278,-0.915039,70.83702,19.53125,140.964508,-21.991607,76.693618,-18.964172,7
9877,0.069214,-0.166626,-0.771972,222.509384,-36.678314,-10.826111,-6.131653,74.606887,-28.992675,7
9878,-0.199341,-0.191528,-0.555664,-138.570785,80.13916,-9.422303,-6.89093,56.883941,-44.136825,7
9879,0.012573,-0.708618,-1.077148,-52.022933,-64.876556,-243.797302,-6.14093,69.483947,-38.586822,7
9880,0.003784,-0.283325,-1.162597,78.40538,-10.799408,-190.879821,-12.290925,74.733947,-33.186828,7
9881,-0.117798,-0.303833,-1.214843,167.455673,21.728515,-297.019958,-20.090927,69.933944,-33.036819,7
9882,-0.481567,-0.097778,-1.027832,248.26622,-194.942474,-268.272399,-40.490921,14.283951,-33.786819,7
9883,0.099976,-0.137817,-0.940429,-61.300277,-290.767669,-267.723083,-46.340927,-7.316025,-16.086822,7
9884,-0.104126,-0.267212,-0.694824,54.479599,-124.080657,-93.345642,-35.540924,-33.866027,24.56314,7
9885,0.306519,-1.080688,-1.24414,161.718368,28.259277,-242.210388,-10.340928,-43.016021,34.31314,7
9886,0.672241,-1.437622,-1.640625,210.729599,163.513183,154.148101,8.409043,-38.216018,48.863143,7
9887,0.006714,-0.536255,-1.38623,-264.364257,-20.565032,31.467437,-6.89093,-33.566024,50.363143,7
9888,0.248413,-0.318481,-0.936035,98.485946,-32.161712,-205.528259,0.759048,-42.266021,25.31314,7
9889,0.300171,0.156616,-0.929199,240.331649,58.654785,114.231109,-10.340928,-48.866027,42.413146,7
9890,0.119507,-0.37561,-1.122558,-201.620101,127.563476,61.435699,-26.240921,-36.116027,58.613143,7
9891,-0.110474,-0.293091,-0.577637,66.381454,23.925781,-124.229431,-36.14093,-34.466018,39.263137,7
9892,0.116577,-0.276001,-0.760254,32.201766,-14.705658,-126.731872,-27.440917,-40.766021,37.763137,7
9893,0.095093,-0.345825,-0.821289,30.920028,-82.881927,-73.814392,-22.190933,-43.916015,40.013137,7
9894,0.362183,-0.203247,-1.089843,43.615341,-71.102142,-48.789978,-12.290925,-47.966018,46.763137,7
9895,0.289917,-0.334595,-0.91748,-9.054184,14.282227,-108.48236,-7.190933,-48.566024,51.71315,7
9896,0.46521,-0.411743,-1.057617,-83.089828,14.953614,-41.770935,-3.290924,-48.716018,52.763137,7
9897,0.401733,-0.611938,-1.005859,-1.66893,59.082031,-1.487732,-0.89093,-49.916015,49.31314,7
9898,0.002808,-0.208618,-0.440918,-21.44432,3.90625,24.265289,0.159042,-49.466018,47.513137,7
9899,0.259644,-0.466919,-0.855957,-63.131332,-28.743743,51.97525,-7.190933,-49.316024,42.863143,7
9900,0.341186,-0.451294,-0.863769,47.338485,40.649414,86.643219,-8.540925,-49.916015,43.013137,7
9901,0.325073,-0.473267,-1.003906,-32.430648,-26.668548,6.748199,-22.190933,-43.616027,44.96315,7
9902,0.344116,-0.266235,-0.940429,48.437118,1.647949,11.508942,-25.040924,-46.166015,43.913147,7
9903,0.335815,-0.367798,-0.902344,17.736434,16.723632,7.480621,-25.040924,-44.216018,44.363143,7
9904,0.303589,-0.389282,-0.975586,74.926376,4.02832,-5.577087,-26.840927,-43.016021,46.163146,7
9905,0.481811,-0.356079,-0.906738,165.136337,91.796875,88.108062,-29.240921,-35.366027,61.31314,7
9906,0.439819,-0.772095,-0.719238,162.57286,180.175781,160.373687,-42.14093,-20.816024,63.863143,7
9907,0.542358,-0.42981,-0.567383,91.894149,237.487792,153.415679,-47.090927,-12.866028,60.863143,7
9908,0.387573,-0.775513,-0.597168,-68.990707,277.893066,112.70523,-58.344833,2.732483,40.959045,7
9909,0.244995,-1.102661,-0.419434,-83.272933,217.773437,116.306304,-63.594833,7.832489,32.409042,7
9910,0.023315,-0.59436,-0.944336,-307.149902,114.807128,173.374176,-58.344833,16.382476,6.759048,7
9911,-0.243774,-0.554321,-0.670898,-163.290023,141.052246,188.083648,-53.394836,34.382476,-0.740921,7
9912,-0.232544,-0.508911,-0.661621,-173.971176,112.487792,221.775054,-50.694824,41.882476,-4.64093,7
9913,0.134644,-0.772095,-1.333984,-104.085922,186.401367,114.292144,-36.744827,63.932479,-9.890931,7
9914,0.009155,-0.071411,-0.252441,-26.754379,36.499023,106.113433,-10.494828,73.232482,-14.540925,7
9915,-0.081177,-0.030396,-0.883301,-114.767074,-5.489349,-9.361268,-1.494827,72.632476,-16.940918,7
9916,0.15271,-0.631958,-1.072265,-64.046859,-64.022064,-192.955017,-4.194839,80.432479,-0.290924,7
9917,0.163452,-0.180786,-0.945801,172.704696,52.001953,-29.136657,-10.044831,81.032485,5.859039,7
9918,0.122925,0.148804,-1.624511,-206.136703,0.732422,63.388824,-17.094833,67.832473,-6.89093,7
7648,0.026489,-0.768188,-0.655395,6.559372,13.906479,18.209457,-42.044433,-64.711532,28.150833,6
7649,0.00061,-0.618774,-0.68811,-45.072555,30.813217,-8.031846,-44.744445,-65.911529,30.700836,6
7650,-0.048706,-0.85022,-0.728149,-0.883102,-3.17955,-6.689072,-42.344436,-66.961532,26.050842,6
7651,0.041138,-0.671997,-0.712036,-21.69609,10.36644,-16.332626,-43.694442,-66.661529,25.150833,6
7652,-0.064819,-0.69104,-0.690063,-24.747848,-112.493515,-63.451766,-41.894439,-69.661529,22.750839,6
7653,0.113892,-0.728149,-0.901001,-25.3582,-94.793319,-56.188583,-36.944442,-71.311523,25.750839,6
7654,0.049927,-0.584595,-0.761352,-45.255661,-47.185897,-66.991806,-28.094436,-76.411529,25.750839,6
7655,0.030884,-0.700805,-0.883423,-29.38652,-15.020371,-56.188583,-24.794448,-78.211532,26.200836,6
7656,-0.062378,-0.57727,-0.867798,-8.390427,4.873276,-7.238388,-19.694442,-81.061523,23.050842,6
7657,-0.091675,-0.689575,-0.819946,10.648728,-16.607284,7.711411,-18.944442,-80.761535,20.800842,6
7658,-0.058472,-0.626099,-0.737915,30.302047,71.157455,36.642074,-22.094436,-81.661529,20.650833,6
7659,-0.329956,-0.501587,-0.930298,-5.033493,-39.922714,41.09764,-30.494445,-77.311523,22.900833,6
7660,-0.132202,-0.922973,-1.025512,56.6082,-94.244003,54.342269,-33.044433,-73.861526,27.400833,6
7661,-0.124878,-0.885376,-0.737427,17.78984,-72.637558,-45.202255,-33.794433,-71.011535,36.250839,6
7662,-0.355347,-0.814575,-0.96936,-38.846969,-164.373397,-65.710067,-24.044448,-67.561523,39.700836,6
7663,-0.228394,-0.693481,-0.736938,14.616013,-9.771348,-105.99327,-4.094437,-64.561523,40.600845,6
7664,0.34729,-0.794555,-0.516235,101.285934,267.507568,-126.317977,1.155533,-63.811523,41.650833,6
7665,-0.209351,-0.504516,-0.712524,15.40947,149.038314,-154.394149,7.155533,-54.061523,50.800842,6
7666,-0.387573,-0.966919,-0.471313,279.44757,-159.246444,-254.980087,12.555527,-51.511535,52.150833,6
7667,0.379517,-0.582641,-0.258911,48.856735,-47.307968,-84.508895,46.905532,-6.511536,70.600845,6
7668,0.485474,-0.563599,-0.126099,-13.761521,4.079819,-56.188583,48.105529,-1.711533,69.850845,6
7669,0.53772,-0.823364,-0.498169,-119.718551,18.728256,-7.055283,49.005523,-2.011536,68.200836,6
7670,0.274536,-1.17102,-0.44397,29.935836,-68.181991,42.74559,50.055526,-4.111526,69.100845,6
7671,0.338501,-0.890259,-0.340454,61.246871,55.59349,96.273422,46.905532,-11.16153,64.300842,6
7672,0.002075,-0.707153,-0.263794,84.623336,68.716049,163.717269,33.855529,-11.011536,72.250839,6
7673,0.034302,-0.874634,-0.053833,40.616989,37.282943,95.846176,28.605529,-7.111526,75.250839,6
7674,-0.020386,-0.872192,0.027222,24.137496,-27.776718,36.520004,26.505523,-5.761536,78.100845,6
7675,-0.063843,-0.841919,-0.104126,17.5457,-28.203964,21.078109,23.055526,-2.16153,78.850845,6
8098,-0.10498,-0.771484,-0.571411,-14.614106,23.86856,-4.5681,-58.407043,-27.083007,-16.486633,6
8099,-0.091309,-0.620605,-0.527466,-73.085784,31.68106,-3.103256,-58.407043,-28.28302,-17.236633,6
8100,-0.040039,-0.575683,-0.595825,-113.857269,58.475494,5.681992,-57.507034,-29.483016,-20.536636,6
8101,-0.057129,-0.653808,-0.590942,-133.75473,68.85147,-25.259017,-59.457031,-31.88301,-23.836624,6
8102,0.003906,-0.333496,-0.873657,-120.26596,16.727447,14.959336,-61.557037,-28.433013,-44.536636,6
8103,0.013184,-0.410156,-0.959594,-123.317718,43.949127,-6.46019,-61.10704,-28.13301,-46.786636,6
8104,0.023437,-0.416016,-0.927368,-92.983245,10.562897,-65.053939,-61.707031,-26.78302,-50.386627,6
8105,0.080566,-0.316894,-1.068481,-31.948089,-8.781434,-102.407455,-60.657043,-30.233016,-54.886627,6
8106,0.091309,-0.267578,-1.051391,29.937744,4.642487,-57.790756,-57.507034,-35.333007,-55.18663,6
8107,-0.029785,-0.375976,-0.952759,93.475341,-79.88739,-19.765853,-53.457031,-43.733016,-51.43663,6
8108,0.185059,-0.057129,-0.927368,-2.040863,-35.02655,-4.812241,-54.507034,-45.233016,-48.43663,6
8109,0.149414,-0.078613,-0.977173,-86.696624,-10.124207,-27.883529,-53.157043,-45.083007,-44.236633,6
8110,0.006348,-0.282715,-1.258423,-127.83432,-2.433777,-4.629135,-53.907043,-44.63301,-48.286636,6
8111,-0.049316,-0.360351,-1.124634,-27.065277,39.554595,69.768905,-55.10704,-40.733016,-53.836624,6
8112,-0.126465,-0.055176,-0.830688,33.538818,-14.396668,100.95787,-60.35704,-28.13301,-62.086624,6
8113,0.059082,0.10791,-1.018188,48.065185,-11.650086,90.887069,-66.807037,-12.383011,-59.836624,6
8114,-0.150391,0.047852,-1.102173,-43.117523,-0.419617,29.546737,-68.907043,-3.233017,-59.986633,6
8115,-0.22168,-0.02002,-1.007934,-23.464202,-36.003112,50.481796,-69.957031,-1.433014,-59.086624,6
8116,-0.026855,0.06543,-0.950805,28.411865,-37.651062,3.423691,-70.257034,3.966949,-56.536636,6
8117,-0.137695,0.017578,-1.193969,-21.083831,28.812408,71.783065,-70.707031,4.866959,-56.086624,6
8118,-0.758301,-1.456054,-0.765747,325.592041,-98.197937,-62.612533,-71.60704,6.666946,-54.886627,6
8119,-0.0625,0.301269,-1.136841,56.671142,51.883697,-25.686264,-68.007034,24.516952,-58.336624,6
8120,-0.206055,-0.000488,-0.650513,-122.829437,122.501373,71.172714,-68.60704,19.266952,-59.68663,6
8121,0.044434,-0.124023,-1.03479,-85.659027,-9.880066,20.330429,-64.557037,31.566955,-65.086624,6
8122,0.047852,0.13623,-1.067505,6.988525,63.053131,-23.427963,-59.907043,42.366958,-70.336624,6
8123,0.027832,0.309082,-1.082153,-50.807952,31.864166,-22.634506,-57.057037,41.766952,-72.43663,6
8124,0.144531,0.394531,-1.253052,-100.124359,43.460845,-27.578353,-59.60704,42.666946,-75.736633,6
8125,0.251953,0.080566,-0.942505,-6.130218,79.227447,-71.279525,-57.807037,43.416946,-77.536621,6
8126,0.152832,0.06543,-0.98352,57.95288,73.856353,-104.787826,-58.557037,43.866958,-76.486633,6
8127,0.046387,0.067383,-0.87561,115.631103,-11.22284,-38.015365,-57.057037,34.416946,-85.036621,6
8128,-2.106933,0.053223,-0.053833,20.599365,-142.082214,140.813827,-57.207031,31.416946,-88.18663,6
8129,0.714844,0.317383,-0.993286,1.312256,-24.040222,-78.054428,-63.957031,27.816955,-84.43663,6
8130,0.322266,0.316406,-1.35852,-78.334808,118.717193,-117.605209,-67.407043,29.016952,-79.93663,6
8131,0.111328,0.106445,-1.02893,-39.882659,88.199615,-88.247299,-67.85704,27.516952,-81.886627,6
8132,-0.04248,0.07373,-0.957153,6.561279,-35.820007,-79.946517,-63.807037,22.866958,-90.586624,6
8133,0.050781,0.007812,-0.912719,65.338134,-30.509948,-22.573471,-64.407043,18.816955,-90.43663,6
8134,0.216797,0.197266,-0.808716,62.408447,-25.19989,-9.023667,-66.057037,17.766952,-90.586624,6
8135,0.276855,0.296875,-1.232055,-16.017913,29.911041,-47.414779,-67.85704,12.516953,-90.43663,6
8136,0.081543,0.088867,-1.195923,18.096923,-24.589538,-71.584701,-68.157043,10.566956,-94.486633,6
8137,0.06543,0.091797,-0.976684,32.25708,-35.636901,-91.665267,-68.757034,6.816956,-94.036621,6
8138,0.008301,0.10791,-1.217895,23.834228,-13.969422,-167.715072,-68.007034,2.016952,-94.786621,6
8139,-0.252441,0.063477,-0.844848,29.205322,4.09317,-75.12474,-66.657043,-19.583007,-94.18663,6
8140,-0.287109,-0.015625,-0.955688,47.027587,-80.436706,-30.385971,-64.257034,-25.28302,-95.086624,6
8141,-0.137207,-0.070801,-0.978637,76.263427,-20.866394,-3.469467,-68.157043,-36.233016,-84.43663,6
8142,-0.169922,0.006836,-0.951294,-7.289886,26.309967,23.260116,-71.007034,-43.433013,-73.786621,6
8143,-0.279785,-0.052246,-1.062134,-17.116546,-36.674499,-8.108139,-72.207031,-42.683013,-71.986633,6
8144,-0.165527,-0.114746,-1.366333,15.960694,-59.196472,-20.803451,-73.85704,-42.833007,-71.836624,6
8145,-0.243164,-0.143555,-1.092407,99.090576,-71.952819,-30.202865,-72.807037,-48.38301,-58.93663,6
8146,-0.091797,-0.121094,-0.885376,3.570557,0.919342,-14.15062,-67.10704,-52.28302,-40.636627,6
8147,-0.097656,-0.112305,-0.754028,-49.098968,19.046783,11.175156,-66.657043,-53.183013,-39.136627,6
8148,-0.086914,-0.103516,-0.768677,-74.733734,35.892486,7.390976,-65.157043,-54.683013,-39.586624,6
8149,-0.214355,-0.244141,-1.112427,11.810303,-3.166199,-48.147201,-64.407043,-55.433013,-47.68663,6
8150,-0.248535,-0.265625,-1.099243,63.385009,-15.983582,-48.818588,-62.907043,-57.833007,-47.68663,6
8151,-0.273437,-0.213379,-0.880005,85.845947,-52.726745,-36.977767,-59.157043,-61.433013,-44.386627,6
8152,-0.291992,-0.268066,-0.98938,-37.685394,-22.514343,-70.669174,-56.60704,-65.483016,-36.736633,6
8153,-0.339844,-0.368164,-0.929321,-3.749847,-6.828308,-62.673568,-52.707031,-68.933013,-33.586624,6
8154,-0.361328,-0.32959,-0.950805,48.431396,2.017975,-34.231185,-45.35704,-76.28302,-33.136627,6
8155,-0.318848,-0.336426,-0.901489,34.210205,-24.406433,-49.917221,-42.35704,-75.53302,-33.586624,6
8156,-0.310059,-0.432129,-0.915161,69.854736,3.665924,-16.65306,-34.407043,-79.433013,-25.336624,6
8157,-0.193359,-0.60498,-0.746216,85.968017,14.713288,-11.281968,-28.407043,-77.933013,-17.236633,6
8158,-0.207031,-0.499512,-0.859497,46.844482,41.446685,7.329941,-28.407043,-77.183013,-13.486634,6
8159,-0.351074,-0.629883,-0.717407,49.89624,-13.725281,11.358262,-29.457031,-74.78302,-8.236634,6
8160,-0.330566,-0.824707,-0.956177,82.550048,0.736237,13.067246,-29.907043,-73.583007,-6.736633,6
8161,-0.347168,-1.012695,-0.900512,151.092529,-2.128601,57.317733,-28.707031,-68.933013,-1.93663,6
8162,-0.282227,-0.764648,-0.784302,103.912353,-18.486022,72.759628,-28.407043,-65.333007,1.513336,6
8163,-0.244141,-0.331543,-0.589966,-181.484222,-115.409851,-27.822494,-22.257034,-60.233016,7.063339,6
8164,-0.108887,-0.667969,-0.815063,-183.315277,-119.377136,-133.047103,-13.857041,-68.333007,-1.786636,6
8165,-0.112305,-0.869629,-0.839966,147.491455,157.535553,91.314315,-0.35704,-68.933013,-5.236633,6
8166,-0.29248,-0.524414,-0.595825,32.806396,107.242584,-79.458236,-7.85704,-66.233016,-2.386627,6
8167,-0.004883,-0.700195,-0.962036,74.737548,-42.167663,-160.94017,4.142929,-64.13301,1.063339,6
8168,0.150391,-0.805176,-0.772583,256.805419,7.205963,-203.664779,17.042922,-57.38301,6.613342,6
8169,0.165527,-0.762207,-0.338501,309.906005,-119.499206,-50.100326,33.242935,-39.083007,15.013337,6
8170,0.414062,-0.276367,0.003784,-197.170257,-27.21405,116.949081,42.842926,-16.13301,21.913345,6
8171,0.510742,-0.777832,-0.619751,-154.689788,21.97647,86.065292,42.542923,-21.233016,18.913345,6
8172,-0.173828,-0.467773,-0.315063,278.4729,76.847076,120.794296,28.142929,-31.13301,21.613342,6
8173,0.018066,-0.399414,0.013062,105.743408,108.646392,79.351425,18.242935,-12.233017,27.913345,6
8174,0.069336,-0.65918,0.123901,-1.247406,151.859283,15.691758,14.492936,-4.883011,29.413345,6
8175,-0.478027,-0.740722,0.140015,-49.95346,0.18692,-24.282455,7.917831,-2.033997,30.182388,6
8176,-0.395996,-0.891113,-0.147095,71.685791,-84.831237,-1.211166,1.371536,-5.482529,28.58609,6
8177,0.161133,-0.847168,-0.325317,-20.71762,83.194732,45.415878,6.075745,-5.500595,28.965683,6
8178,0.037109,-0.904297,0.262573,127.166748,11.600495,-140.615463,2.903671,7.686188,29.729751,6
8179,0.100098,-0.410156,0.406128,15.289307,59.696197,-70.058822,1.442245,14.013047,28.276138,6
8180,0.30957,-1.07373,0.218628,-6.252289,18.741607,-46.194076,2.069107,16.594787,28.458847,6
8181,0.363769,-1.054687,0.406616,-14.125824,16.361236,-24.831771,0.869095,17.044784,29.208847,6
8182,0.072266,-1.181152,0.379272,33.233642,-36.613464,-17.324447,-2.580872,13.894791,28.158844,6
8183,0.080078,-1.460449,0.638061,-54.775238,27.408599,12.334824,-1.062805,15.875062,28.940094,6
8184,0.068359,-0.512695,0.648804,-133.205413,62.137603,60.00328,0.137161,17.525054,28.490097,6
8185,-0.45166,-1.418945,0.578003,-58.254241,40.225982,-12.441636,0.587173,8.375062,29.240097,6
8186,0.437012,-1.02539,0.279663,-160.854339,198.978424,63.299179,-1.03009,9.302399,29.735504,6
8187,-0.344238,-1.611328,0.863159,132.965087,-67.070007,26.86119,-1.78009,7.202408,28.985504,6
8188,-0.115234,-0.571777,0.329468,1.251221,-51.261901,42.608261,-6.130081,5.852402,28.08551,6
8189,0.388672,-0.603516,-0.119751,13.580323,-51.322937,28.936386,-4.016907,5.272903,30.091171,6
8190,0.083984,-0.767578,0.133179,-18.093109,19.290924,30.096054,-4.016907,4.522903,29.341171,6
8191,0.297363,-0.800293,0.112671,-63.259124,84.903717,44.744491,-2.216904,3.62291,30.241165,6
8192,-0.314941,-0.966797,0.269409,-62.099456,-18.669128,41.021347,-3.416901,-0.727066,30.691177,6
8193,-0.080566,-0.797851,0.086792,-59.597015,17.765045,53.472518,-3.403717,-0.729996,28.778762,6
8194,-0.273926,-1.124023,0.168335,30.426025,-64.567565,-47.048568,-6.248352,-2.544144,30.609039,6
8195,-0.105957,-0.710937,0.04187,-46.108245,36.624908,-82.571029,-5.348343,-4.794144,28.509048,6
8196,0.298828,-1.095703,-0.080688,-19.557952,80.692291,55.425643,-5.465637,-18.206161,28.750839,6
8197,-0.520019,-1.210449,-0.019653,-70.827484,-80.192565,46.087265,-13.415635,-20.589065,24.991561,6
8198,-0.342773,-0.925293,-0.144653,-23.342132,8.304596,73.308944,-10.253434,-27.907333,24.078872,6
8199,-0.264648,-0.968261,-0.259888,-28.53012,18.558502,-35.94017,-9.026078,-27.775497,23.292251,6
8200,-0.388672,-0.680664,-0.36731,-12.905121,-56.144714,8.550644,-11.276078,-28.0755,23.292251,6
8201,-0.122559,-0.933105,-0.388306,-44.521331,-20.195007,-5.239487,-8.876084,-32.275497,22.692245,6
8202,-0.138184,-1.194824,-0.476196,-28.28598,-2.983093,12.334824,-8.542878,-32.208206,21.745376,6
8203,-0.245117,-0.958984,-0.25354,20.6604,-56.999206,-113.759994,-8.392884,-33.258209,21.595367,6
264850,0.120972,-0.45813,-0.873657,-10.69069,11.268616,17.570495,-66.707916,26.473785,-42.653228,0
264851,0.116577,-0.475708,-0.893188,-6.845474,0.953674,7.255554,-67.907913,26.473785,-43.103225,0
264852,0.110229,-0.473267,-0.890259,-3.12233,-6.183624,1.945496,-65.657913,28.423782,-42.653228,0
264853,0.112671,-0.46936,-0.896118,1.817703,-5.390167,-2.384186,-65.057922,27.073791,-43.253234,0
264854,0.136108,-0.460083,-0.893188,0.291824,2.052307,-3.84903,-66.407913,27.973785,-40.853225,0
264855,0.124878,-0.451294,-0.880981,-5.441666,-0.385284,-5.86319,-66.407913,27.973785,-42.653228,0
264856,0.136597,-0.467407,-0.894653,2.672195,-0.934601,-4.642487,-66.707916,27.673782,-41.153228,0
264857,0.143433,-0.455688,-0.900512,3.770828,2.601624,-4.21524,-65.807922,27.373794,-43.253234,0
264858,0.146851,-0.462036,-0.88977,2.428055,1.197815,-3.726959,-64.60791,26.173782,-42.053222,0
264859,0.147827,-0.459106,-0.879516,1.756668,-0.385284,-3.055572,-66.407913,26.773788,-43.103225,0
264860,0.159546,-0.468872,-0.879028,0.902176,0.099182,-1.346588,-65.807922,27.373794,-42.053222,0
264861,0.148804,-0.455688,-0.890747,0.780106,-1.117706,-0.06485,-66.85791,26.173782,-41.303222,0
264862,0.151733,-0.474243,-0.893677,0.535965,-0.324249,0.846863,-66.557922,25.423782,-41.753234,0
264863,0.142944,-0.459595,-0.901001,0.780106,-0.812531,0.358582,-67.157913,26.023788,-41.603225,0
264864,0.142456,-0.456665,-0.877563,2.733231,-0.507355,0.297546,-66.557922,27.823791,-43.253234,0
264865,0.143921,-0.456177,-0.891235,-0.558853,-0.629425,0.297546,-67.307922,25.123794,-42.503234,0
264866,0.141968,-0.468872,-0.888305,1.573563,1.197815,-0.553131,-67.457916,26.473785,-42.353225,0
264867,0.139526,-0.467407,-0.880493,1.024246,-0.385284,-0.919342,-65.807922,26.623794,-41.303222,0
264868,0.148315,-0.460571,-0.889282,0.047684,1.014709,-0.675201,-67.457916,26.023788,-43.103225,0
264869,0.148315,-0.464966,-0.890747,-0.314713,0.526428,-0.614166,-65.657913,25.273788,-42.653228,0
264870,0.146362,-0.460571,-0.882446,0.597,-0.507355,0.053406,-67.457916,25.723785,-43.103225,0
264871,0.144897,-0.464477,-0.876098,0.963211,0.892639,0.541687,-65.807922,27.073791,-42.803222,0
264872,0.139038,-0.476196,-0.880005,-0.253677,1.014709,-0.736237,-66.85791,25.423782,-41.753234,0
264873,0.137573,-0.465942,-0.876587,-0.680923,-2.277374,-0.980377,-65.957916,26.023788,-43.403228,0
264874,0.14978,-0.459595,-0.898071,0.535965,-0.751495,-0.18692,-67.307922,26.623794,-41.003234,0
264875,0.146362,-0.464477,-0.894165,-2.573013,-0.080109,-0.492096,-65.057922,26.173782,-42.503234,0
264876,0.147339,-0.468872,-0.864868,1.024246,-0.44632,-0.675201,-66.85791,27.073791,-42.503234,0
264877,0.130249,-0.461548,-0.893677,-1.413345,-0.934601,-1.224518,-65.807922,25.123794,-42.053222,0
264878,0.157104,-0.468384,-0.892212,0.597,-0.507355,0.358582,-66.10791,26.173782,-43.253234,0
264879,0.148804,-0.473267,-0.87268,1.939774,1.075745,0.053406,-66.10791,25.423782,-42.053222,0
264880,0.133179,-0.469849,-0.881469,2.48909,0.099182,0.541687,-66.557922,24.673782,-42.053222,0
264881,0.146362,-0.462524,-0.876587,2.428055,1.808167,-0.308991,-67.457916,25.273788,-42.353225,0
264882,0.133667,-0.474243,-0.875122,0.780106,-0.995636,-0.675201,-65.957916,25.723785,-43.103225,0
264883,0.127319,-0.473267,-0.872192,1.451492,0.587463,-0.736237,-66.85791,26.173782,-42.053222,0
264884,0.146362,-0.454224,-0.888305,0.169754,-0.141144,-0.919342,-66.407913,26.473785,-42.653228,0
264885,0.142456,-0.471313,-0.880493,-0.925064,-1.239777,-0.370026,-67.60791,25.873794,-42.053222,0
264886,0.150269,-0.466919,-0.87854,-1.718521,1.13678,-2.017975,-66.10791,25.423782,-42.053222,0
264887,0.137085,-0.453247,-0.880005,-0.497818,-0.202179,-1.407623,-67.157913,24.823791,-41.903228,0
264888,0.142944,-0.468384,-0.898071,0.169754,0.892639,-2.323151,-67.307922,25.873794,-43.253234,0
264889,0.140991,-0.470825,-0.872192,-1.291275,-1.178741,-2.20108,-66.707916,24.523788,-42.653228,0
264890,0.153687,-0.474731,-0.893677,0.47493,2.296448,-0.858307,-66.407913,27.673782,-43.103225,0
264891,0.139526,-0.474731,-0.872192,4.198074,-0.507355,-0.18692,-66.557922,24.673782,-42.803222,0
264892,0.159058,-0.45813,-0.881958,0.47493,0.221252,-0.858307,-66.407913,26.773788,-43.103225,0
264893,0.158569,-0.463989,-0.873169,3.099442,-1.728058,-2.628326,-66.85791,26.173782,-42.803222,0
264894,0.150757,-0.46936,-0.899536,0.597,-1.789093,0.358582,-66.707916,25.273788,-43.403228,0
264895,0.158569,-0.463013,-0.87854,0.658035,-0.56839,1.335144,-66.557922,25.123794,-43.553222,0
264896,0.160522,-0.467407,-0.884887,-0.131607,-0.44632,1.701355,-66.707916,24.523788,-43.403228,0
264897,0.133667,-0.474243,-0.881958,1.695633,-1.667023,0.114441,-66.85791,25.873794,-44.003234,0
264898,0.128784,-0.471802,-0.887329,0.780106,-2.826691,-0.919342,-66.407913,25.273788,-41.903228,0
264899,0.158569,-0.468872,-0.882446,-0.864029,-2.155304,-2.323151,-67.157913,25.273788,-42.353225,0
264900,0.127808,-0.48645,-0.869751,3.587723,-7.282257,-3.482819,-65.807922,25.423782,-42.503234,0
264901,0.140503,-0.453247,-0.888305,0.291824,-3.070831,-3.360748,-67.457916,24.523788,-42.353225,0
264902,0.13855,-0.471313,-0.87854,2.550125,-1.667023,-2.262115,-68.507919,25.123794,-40.253234,0
264903,0.145874,-0.462524,-0.888794,-1.47438,-0.751495,-1.773834,-67.157913,24.073791,-41.603225,0
264904,0.147827,-0.493774,-0.87854,0.291824,0.404358,-2.017975,-66.85791,24.223785,-41.003234,0
264905,0.153198,-0.481567,-0.874634,-0.070572,-0.629425,-1.651764,-68.507919,25.423782,-41.753234,0
264906,0.15564,-0.459106,-0.873657,0.169754,0.953674,-0.431061,-67.457916,24.523788,-40.403228,0
264907,0.13562,-0.470825,-0.879028,-0.802994,-0.629425,-0.919342,-67.457916,24.073791,-42.353225,0
264908,0.126831,-0.471802,-0.870727,0.658035,-0.202179,-0.736237,-68.207916,24.073791,-41.903228,0
264909,0.145386,-0.477173,-0.878052,1.329422,-0.44632,-0.370026,-68.207916,24.823791,-41.153228,0
264910,0.140991,-0.473267,-0.879028,-0.070572,-0.080109,-0.919342,-67.907913,24.823791,-41.153228,0
264911,0.142456,-0.466431,-0.868286,-0.558853,-0.202179,-1.529694,-68.207916,24.523788,-41.603225,0
264912,0.138062,-0.476196,-0.87561,1.512527,-0.202179,-0.492096,-67.907913,23.323791,-41.903228,0
264913,0.139526,-0.463013,-0.885864,-1.718521,-1.239777,0.053406,-67.60791,23.473785,-40.703231,0
264914,0.141968,-0.48938,-0.869751,-0.375748,0.831604,-0.553131,-67.307922,23.923782,-42.053222,0
264915,0.142456,-0.471313,-0.882446,-0.619888,-1.239777,-1.041412,-68.507919,23.923782,-41.003234,0
264916,0.147339,-0.482544,-0.888305,-0.375748,-0.995636,-0.247955,-66.707916,23.623794,-41.903228,0
264917,0.129761,-0.48938,-0.890747,0.47493,0.221252,-0.06485,-66.10791,23.923782,-41.753234,0
264918,0.150269,-0.466919,-0.888305,0.780106,-0.44632,-0.736237,-67.157913,23.323791,-41.903228,0
264919,0.148804,-0.477173,-0.885864,1.573563,-0.019073,-0.431061,-68.057922,23.023788,-41.003234,0
264920,0.156616,-0.48352,-0.877075,0.47493,-0.995636,-1.163483,-67.60791,23.473785,-42.053222,0
264921,0.13562,-0.459106,-0.883911,-1.718521,-0.202179,-1.712799,-67.60791,23.023788,-41.003234,0
0,0.117676,0.067749,-1.052612,-13.759614,-0.049591,4.150391,-77.691513,-37.05606,97.999954,9
1,0.108398,0.079468,-1.02478,-3.444672,3.120422,6.530762,-75.741516,-38.706054,97.249954,9
2,0.140625,0.151245,-1.040405,-1.857758,-6.702423,11.35254,-75.741516,-39.156066,97.249954,9
3,0.143555,0.10437,-0.994995,-11.318207,-10.791779,1.037598,-75.441513,-38.706054,97.549957,9
4,0.166016,0.220581,-1.024292,-24.990081,34.675598,-25.569915,-71.991516,-47.406066,93.049957,9
5,0.145996,0.227417,-0.927612,-7.045746,20.332336,-43.331146,-72.291503,-55.356063,84.049957,9
6,0.166992,0.259155,-0.926636,-3.444672,27.290344,-44.368743,-71.841506,-59.106063,80.899963,9
7,0.152344,0.295288,-0.939819,6.134033,27.168273,-25.63095,-70.191513,-63.456054,78.949966,9
8,0.085449,0.25769,-0.932983,13.153077,16.487121,-34.236907,-70.191513,-64.206054,76.699966,9
9,0.125977,0.266968,-0.947632,10.101319,29.85382,-44.79599,-70.191513,-65.856063,75.199966,9
10,0.116699,0.228882,-0.935425,32.562255,16.548156,-72.322845,-71.241516,-67.206054,75.499954,9
11,0.182129,0.227417,-0.961303,7.965088,2.326965,-11.53183,-61.041503,-75.756057,75.649963,9
12,0.196777,0.231811,-0.957397,4.669189,2.204895,-13.607026,-60.89151,-73.956054,75.499954,9
13,0.202148,0.265503,-0.940307,7.904053,12.702942,-38.509368,-58.791503,-76.956054,76.699966,9
14,0.200195,0.224976,-0.954468,10.46753,18.623352,-41.194915,-55.941513,-78.756057,75.799957,9
15,0.228027,0.228882,-0.935913,5.828857,9.223938,-20.565032,-45.441513,-90.456054,70.699966,9
16,0.268555,0.250854,-0.944214,4.91333,-2.490997,-7.259369,-41.841506,-90.156066,75.049957,9
17,0.23584,0.251831,-0.940796,0.152588,0.068665,-3.8414,-41.991516,-91.206054,75.199966,9
18,0.257812,0.216675,-0.947632,0.152588,-1.819611,-0.545502,-40.041503,-91.956054,72.949966,9
19,0.24707,0.227905,-0.933471,-8.937836,-0.965118,10.803223,-41.841506,-91.80606,74.299957,9
20,0.22998,0.254272,-0.944702,-15.956879,-1.270294,12.756348,-39.441513,-90.906066,73.249954,9
21,0.259766,0.250854,-0.957397,-20.47348,4.524231,16.418457,-40.791503,-90.456054,72.199966,9
22,0.26416,0.26355,-0.957397,-22.304534,6.29425,13.061524,-43.491516,-91.956054,72.199966,9
23,0.258301,0.239136,-0.91687,-0.82016,-1.087189,3.845215,-45.441513,-94.80606,67.699966,9
24,0.25,0.27478,-0.929565,-2.407074,-6.397247,1.586914,-46.041503,-93.30606,66.799957,9
25,0.264648,0.272827,-0.917846,-2.223968,-3.772736,-0.667572,-44.691513,-93.906066,65.449966,9
26,0.274414,0.278686,-0.928589,-1.857758,0.37384,0.915527,-44.091506,-94.206054,66.499954,9
27,0.252441,0.293823,-0.912964,-4.055023,-1.69754,0.183105,-44.241516,-94.356063,67.399963,9
28,0.267578,0.27478,-0.91394,-1.186371,-0.232697,-0.05722,-44.241516,-95.55606,67.399963,9
29,0.26709,0.27478,-0.926147,-0.148773,1.960754,0,-43.64151,-94.206054,64.999954,9
30,0.244141,0.28064,-0.912475,-2.71225,-0.598907,-0.850677,-45.291503,-94.956054,65.749954,9
31,0.255371,0.269409,-0.920288,8.57544,-3.650665,-8.480072,-45.291503,-95.406066,65.299957,9
32,0.243652,0.283081,-0.946167,2.655029,-0.049591,-1.70517,-42.89151,-90.606063,70.249954,9
33,0.246094,0.269897,-0.928589,-1.186371,-0.782013,2.868652,-41.541503,-92.406066,69.949966,9
34,0.250488,0.26355,-0.936889,-0.881195,0.923157,1.586914,-42.741516,-91.956054,70.699966,9
35,0.242676,0.259644,-0.924194,0.946045,-1.941681,0.244141,-41.091506,-92.55606,69.799957,9
36,0.232422,0.257202,-0.935913,3.082275,-3.406525,-1.155853,-42.14151,-92.106063,70.999954,9
37,0.220703,0.239624,-0.939819,6.134033,-4.383087,-1.399994,-41.091506,-94.206054,70.999954,9
38,0.237793,0.247925,-0.948608,-3.993988,2.815247,1.647949,-40.491516,-92.406066,72.199966,9
39,0.230957,0.225464,-0.942261,-1.125336,0.37384,-1.522064,-40.491516,-91.506057,72.949966,9
40,0.165039,0.193237,-0.923706,13.519288,-56.201934,62.86621,-43.64151,-88.656066,74.299957,9
41,0.125,0.199097,-0.952026,19.683837,-54.981231,75.622558,-44.691513,-84.006057,77.149963,9
42,0.080078,0.117065,-1.003784,5.401611,0.37384,89.294433,-56.39151,-63.30606,91.999954,9
43,0.126465,0.128784,-0.984253,8.392334,-14.94217,81.481933,-62.841506,-52.206054,94.249954,9
44,0.109375,0.077026,-1.019409,17.059326,-19.275665,67.260742,-63.89151,-50.256057,93.499954,9
45,0.137207,0.019409,-1.00769,25.177001,7.9422,24.597168,-65.841506,-37.956054,98.749954,9
46,0.134766,0.105835,-0.979858,10.71167,11.299134,29.296875,-66.89151,-35.706054,98.899963,9
47,0.131836,0.047241,-1.049682,16.63208,29.73175,38.085937,-68.541503,-28.356063,100.999954,9
48,0.057617,-0.215942,-0.91394,48.492431,-102.344512,-196.834564,-69.89151,-24.30606,104.149963,9
49,0.541992,0.681518,-2.878783,37.322998,424.324035,202.758789,-59.541503,-16.656066,110.149963,9
50,-0.450195,0.205933,-0.206421,-181.789398,-26.233673,-68.904876,-83.091506,-13.356064,92.299957,9
51,-0.147461,-0.129517,-1.014038,-84.682464,-174.060821,-117.733001,-92.091506,-12.756058,83.449966,9
52,0.033203,0.054077,-0.975464,-20.656585,20.942688,-20.992279,-75.591506,-23.406066,95.449966,9
53,0.105469,0.085815,-1.01062,5.767822,30.403137,-54.439544,-77.841506,-30.906066,90.199966,9
54,0.180664,0.080933,-0.973511,8.087159,30.647277,-59.200286,-78.14151,-32.706054,90.799957,9
55,0.164062,0.099976,-0.97937,-5.825043,11.421204,-16.414642,-77.691513,-42.30606,85.249954,9
56,0.276367,0.211792,-0.96521,-20.168304,22.956848,-29.354095,-74.691513,-52.506057,79.999954,9
57,0.174805,0.170776,-0.923218,-11.867524,8.430481,-18.245697,-72.741516,-60.156066,77.299957,9
58,0.191406,0.201538,-0.935913,4.974365,1.289368,-5.672455,-72.14151,-63.456054,76.399963,9
59,0.20166,0.197632,-0.987182,-4.60434,-0.843048,3.295898,-72.89151,-64.206054,74.899963,9
60,0.208984,0.217163,-0.96228,-8.754731,-4.749298,5.493164,-72.291503,-65.256057,74.749954,9
61,0.216797,0.234741,-0.958374,-14.064789,-0.415802,7.8125,-72.741516,-64.80606,74.299957,9
62,0.236816,0.277222,-0.927124,-4.238129,-1.209259,1.89209,-72.89151,-69.456054,68.449966,9
63,0.231934,0.299194,-0.932495,-5.031586,-12.622834,7.324219,-74.39151,-67.80606,68.149963,9
64,0.22998,0.324097,-0.913452,-8.876801,-31.360626,28.198242,-72.591506,-68.256057,66.949966,9
65,0.182129,0.287964,-0.95105,-29.140472,-6.092072,24.902343,-74.691513,-66.456054,70.999954,9
66,0.199219,0.384643,-0.934936,-42.385101,-22.876739,11.108399,-74.991516,-66.456054,66.049957,9
67,0.174316,0.469116,-0.82605,-40.615081,-3.58963,-7.50351,-71.091506,-80.55606,53.449966,9
68,0.157227,0.53064,-0.813843,-35.610199,0.37384,-9.883881,-71.841506,-81.606063,52.399963,9
69,0.168945,0.54187,-0.796753,-32.43637,11.60431,-9.578705,-70.491516,-84.30606,47.749954,9
70,0.13623,0.637573,-0.780151,-34.267425,-2.735138,-3.59726,-68.39151,-87.156066,39.649963,9
71,0.141602,0.650757,-0.730835,-17.604827,8.857728,-3.353119,-68.39151,-90.456054,36.199966,9
72,0.203125,0.713257,-0.691772,-8.449555,15.266419,-11.226655,-67.341506,-89.856063,32.749954,9
73,0.123535,0.685913,-0.621948,-25.234222,0.068665,-10.799408,-66.441513,-91.506057,28.699966,9
74,0.19043,0.657593,-0.668335,-29.872894,15.083313,-9.700776,-66.89151,-91.206054,27.199966,9
75,0.207519,0.74646,-0.673218,-9.853364,20.271301,-7.50351,-64.191513,-95.856063,18.949966,9
76,0.168457,0.785034,-0.58728,-42.751312,17.951965,-19.527435,-60.89151,-99.756057,12.049958,9
263348,-0.191406,0.349121,0.86914,-22.882461,-39.419174,4.928589,-22.958801,-21.846984,-35.260452,5
263349,-0.156738,0.348633,0.907715,-19.159317,1.348495,14.572144,-20.858795,-22.146987,-34.210464,5
263350,-0.183594,0.325684,0.908203,-30.32875,9.893418,-9.166718,-23.408798,-20.346984,-35.560455,5
263351,-0.122559,0.415039,0.831055,-75.983047,36.809921,-20.519256,-22.531738,-20.196975,-36.176574,5
263352,-0.156738,0.177246,1.10791,-1.337051,23.015975,7.675171,-22.681747,-19.896987,-36.626571,5
263353,-0.187012,0.183105,1.050293,4.457474,8.489609,0.228882,-22.531738,-18.246978,-38.276565,5
263354,-0.22168,0.166992,0.993164,16.664505,-1.821518,-1.232147,-21.031738,-18.246978,-36.476577,5
263355,-0.209473,0.230957,0.928222,13.612748,15.752793,9.811402,-22.081741,-17.496978,-36.476577,5
263356,-0.229492,0.26123,0.924316,14.223099,9.222031,6.210327,-21.781738,-20.496978,-37.976577,5
263357,-0.219238,0.30957,0.842773,2.382278,5.315781,-3.490448,-20.281738,-19.446975,-35.726577,5
263358,-0.208984,0.319824,0.895508,2.87056,7.513046,-0.804901,-20.73175,-20.496978,-36.176574,5
263359,-0.260742,0.297852,0.928222,0.062943,-3.347397,-0.560761,-21.181747,-19.146987,-36.326568,5
263360,-0.220703,0.319336,0.92334,-7.989883,3.606796,-1.903534,-20.131744,-19.596984,-36.326568,5
263361,-0.255371,0.21582,0.991699,1.955032,-0.905991,-2.269745,-20.281738,-20.946975,-36.476577,5
263362,-0.240723,0.270996,0.964355,0.673294,4.583359,-3.795624,-19.831741,-19.596984,-37.676574,5
263363,-0.270019,0.266113,0.930176,-1.459122,8.672715,3.646851,-20.581741,-19.896987,-37.076568,5
263364,-0.272461,0.296387,0.899902,-1.031876,1.348495,-0.804901,-19.381744,-19.596984,-37.076568,5
263365,-0.244629,0.286621,0.922851,-3.778458,13.677598,3.219604,-20.015441,-19.750885,-38.011245,5
263366,-0.279785,0.287598,0.938476,-0.482559,-4.079819,-3.551483,-20.915435,-19.900894,-37.111236,5
263367,-0.230957,0.284668,0.9375,-2.069473,6.292343,0.839233,-19.865432,-21.100891,-36.661239,5
263368,-0.277832,0.269043,0.942383,-0.482559,8.794785,3.52478,-19.415435,-19.600891,-36.661239,5
263369,-0.270508,0.277832,0.931152,-0.055313,0.188828,0.289917,-19.265441,-19.750885,-36.511245,5
263370,-0.287109,0.257812,0.913574,-1.337051,7.574081,2.853394,-20.015441,-19.750885,-36.961242,5
263371,-0.24707,0.284668,0.745605,-0.543594,3.362656,3.158569,-19.115432,-19.600891,-37.411239,5
263372,-0.232422,0.281738,0.830566,-2.496719,6.109238,9.445191,-18.515441,-19.450881,-36.211242,5
263373,-0.296387,0.265137,0.911621,-0.909805,1.16539,2.914429,-18.965438,-17.500885,-38.011245,5
263374,-0.288086,0.259277,0.924316,-2.679825,1.16539,4.074097,-19.115432,-19.900894,-37.711242,5
263375,-0.256348,0.272461,0.928711,-3.229141,6.048202,5.599976,-20.015441,-20.200881,-38.611236,5
263376,-0.299316,0.282227,0.923828,-0.909805,0.982285,1.876831,-20.315429,-19.750885,-39.061233,5
263377,-0.30957,0.26416,0.926758,-0.543594,3.850937,2.243042,-19.565429,-19.450881,-38.611236,5
263378,-0.304687,0.245605,0.9375,1.527786,2.019882,1.815796,-18.965438,-19.450881,-38.611236,5
263379,-0.292969,0.270019,0.933105,4.457474,10.076523,5.233765,-17.615432,-18.850891,-38.911239,5
263380,-0.319824,0.283691,0.911621,6.471634,7.268906,5.477905,-18.215438,-18.700881,-38.011245,5
263381,-0.313965,0.285156,0.922363,14.284134,21.795272,15.609742,-18.215438,-18.250885,-38.311233,5
263382,-0.332519,0.759765,0.711426,-10.004044,18.743515,-2.941132,-17.765441,-19.000885,-38.011245,5
263383,-0.294434,0.351562,0.932617,-32.403945,29.790878,-21.617889,-17.165435,-18.700881,-38.611236,5
263384,-0.327148,0.379883,0.926269,-40.094375,-3.286362,-8.251191,-15.81543,-17.650894,-39.511245,5
263385,-0.291504,0.40332,0.805176,-92.58461,-41.921615,-19.237518,-14.615433,-17.950881,-39.361236,5
263386,0.01416,0.694336,0.464355,-515.680297,-222.036361,-279.91867,-15.395218,-14.509186,-42.711532,5
263387,-0.734375,-0.882324,0.935058,-87.396621,-6.765366,-34.496307,-17.19522,-10.009186,-41.211532,5
263388,-0.370605,-0.231934,0.947754,-62.311172,25.945663,-24.974823,-18.737213,-1.607727,-44.710357,5
263389,-0.292969,-0.826172,1.131836,61.342239,-10.183335,12.924195,-18.73233,0.341751,-46.05548,5
263390,-0.347168,-0.637695,1.240722,124.147415,31.194686,70.114135,-18.132324,-0.408218,-44.255477,5
263391,-0.324707,-0.062988,0.925293,66.164016,18.865585,41.976928,-17.832336,-3.258209,-44.855484,5
263392,-0.321777,-0.194336,1.098633,79.46968,-31.850814,64.25476,-17.382324,-6.108215,-45.005477,5
263393,-0.296875,0.118164,0.923828,103.090286,-21.902084,107.528686,-18.425979,-7.908218,-43.197662,5
263394,-0.194824,0.083496,0.99707,86.061477,-19.338607,44.113159,-20.825988,-9.25821,-41.997665,5
263395,-0.176758,0.150391,0.981933,71.65718,-28.738021,84.152221,-21.575988,-13.75821,-39.897659,5
263396,-0.14209,0.26709,0.999511,84.474563,-52.663803,111.373901,-23.393554,-12.70723,-37.062805,5
263397,-0.117187,0.243652,1.080078,111.818313,-11.587143,173.751831,-24.293563,-15.107239,-37.212799,5
263398,-0.000977,0.555664,0.79834,37.721633,-4.201889,32.577514,-29.693557,-14.357239,-36.462799,5
263399,0.050293,0.589844,0.800293,-4.75502,-2.004623,-13.011933,-30.568664,-15.710648,-34.502059,5
263400,0.069336,0.558105,0.483887,-143.121719,-44.485092,-110.546112,-30.118652,-16.01065,-35.552063,5
263401,0.451172,0.981933,-0.086426,-393.54895,76.971054,-183.544158,-31.168655,-15.260651,-34.802063,5
263402,-0.124512,0.550293,0.144043,-418.024047,239.080429,25.314331,-28.768661,-11.510651,-37.652053,5
263403,-1.541992,-2.52246,2.064453,201.234817,-194.570541,-51.769256,-20.218658,3.639313,-46.052062,5
263404,-0.589844,-0.150879,1.032226,46.998977,-75.307846,17.745971,-21.21788,7.82515,-43.907135,5
263405,-0.307617,-0.398926,1.21875,68.544387,-36.611557,35.751342,-25.53955,4.065384,-42.838577,5
263406,-0.086914,-0.120117,0.907715,69.704055,-58.401107,46.371459,-25.488769,2.099762,-42.361724,5
263407,0.009766,0.086914,1.002929,136.17134,-17.751693,35.263061,-28.938781,-0.300201,-41.46173,5
263408,-0.10498,0.003906,1.066406,123.170852,23.077011,23.361206,-29.469924,-3.469742,-39.93048,5
263409,-0.068848,0.19043,1.030761,72.267532,-42.104721,35.507202,-29.919921,-7.069733,-38.580474,5
263410,-0.033691,0.249512,1.000976,78.065872,-35.207748,-7.030487,-30.040634,-8.726578,-36.618759,5
263411,-0.088379,0.286621,0.989746,129.457473,65.92369,19.577026,-30.790634,-11.426575,-36.618759,5
263412,0,0.333496,0.997558,40.40718,-27.273178,13.595582,-30.916702,-11.280961,-33.60997,5
263413,0.018555,0.332519,1.003418,35.280227,-46.743392,-8.00705,-30.466705,-14.43097,-35.559967,5
263414,-0.022461,0.484863,0.835937,11.903763,-39.419174,-17.284393,-30.916702,-15.030961,-32.85997,5
263415,0.044922,0.550293,0.761719,-37.591934,-19.582748,-12.462616,-34.066711,-15.480973,-31.959976,5
263416,0.376953,0.743164,0.340332,-329.15686,85.882186,-50.609588,-32.84082,-13.085846,-34.056549,5
263417,-0.145996,0.212891,0.591308,-269.464477,106.512069,-26.622772,-30.890823,-11.285843,-36.156555,5
263418,-0.432617,-0.351562,0.958008,-101.007461,96.258163,46.554565,-29.076171,-1.538773,-40.351181,5
263419,-0.433594,-0.684082,1.160644,-52.728652,-41.799545,-3.551483,-23.639068,5.949478,-42.884094,5
263420,-0.461914,-0.662109,1.168945,-1.642227,-70.730209,12.069703,-24.516113,9.990677,-44.069931,5
263421,-0.17041,-0.307129,1.079101,103.822708,1.16539,56.747436,-26.541412,9.658463,-41.326477,5
263422,-0.121094,-0.318359,1.006836,61.891555,-66.030502,36.361694,-25.791412,8.60846,-41.776474,5
263423,-0.053223,-0.029297,0.991211,50.844192,-19.948959,31.173706,-26.991409,6.508453,-41.926467,5
263424,-0.123047,-0.207031,1.135254,168.336868,16.851425,15.731812,-29.691406,5.908463,-41.326477,5
263425,-0.055664,0.049316,1.029297,122.682571,-65.481185,32.272338,-29.611328,2.126724,-39.946685,5
263426,-0.094727,-0.138672,1.159179,97.963333,-24.648666,36.78894,-30.661331,-1.623245,-38.446685,5
263427,-0.021484,0.213379,1.13916,182.435989,15.813828,-30.712127,-31.987899,-4.030579,-37.989364,5
263428,0.001953,0.175781,0.874023,84.474563,-100.881576,-13.072968,-31.237899,-7.330582,-36.189361,5
